// General information: 
//  MT Manager version: 2020.3.0 
//  XDA version: 2020.3.0 build 5439 rev 106958 built on 2020-11-10
// Device information: 
//  DeviceId: 00B46A02
//  ProductCode: MTW2-3A7G6
//  Firmware Version: 4.4.0
//  Hardware Version: 2.0.0
// Device settings: 
//  Filter Profile: human(46.1)
//  Option Flags: Orientation Smoother Disabled, Position/Velocity Smoother Disabled, Continuous Zero Rotation Update Disabled, AHS Disabled, ICC Disabled
// Coordinate system: ENU
PacketCounter,StatusWord,ClippingFlags,RSSI,Acc_X,Acc_Y,Acc_Z,FreeAcc_E,FreeAcc_N,FreeAcc_U,Gyr_X,Gyr_Y,Gyr_Z,Mag_X,Mag_Y,Mag_Z,VelInc_X,VelInc_Y,VelInc_Z,OriInc_q0,OriInc_q1,OriInc_q2,OriInc_q3,Quat_q0,Quat_q1,Quat_q2,Quat_q3,Roll,Pitch,Yaw,Mat[1][1],Mat[2][1],Mat[3][1],Mat[1][2],Mat[2][2],Mat[3][2],Mat[1][3],Mat[2][3],Mat[3][3]
05155,2,0,-53.0000,9.529054,-0.049248,-2.322417,0.212720,0.254959,-0.010205,0.049032,-0.041344,-0.007450,0.437784,0.437905,-0.136314,0.095295,-0.000490,-0.023205,1.000000,0.000245,-0.000207,-0.000037,-0.999980,-0.001657,0.005897,0.001461,0.190906,-0.675525,-0.168584,0.999926,-0.002942,0.011790,0.002903,0.999990,0.003332,-0.011800,-0.003297,0.999925
05156,2,0,-53.0000,9.597611,-0.190891,-2.401654,0.173073,0.402766,0.072976,0.088388,-0.055224,-0.019076,0.440625,0.446639,-0.138624,0.095983,-0.001907,-0.023991,1.000000,0.000442,-0.000276,-0.000095,-0.999982,-0.001722,0.005620,0.001019,0.197947,-0.643825,-0.117852,0.999935,-0.002057,0.011237,0.002018,0.999992,0.003455,-0.011244,-0.003432,0.999931
05157,2,0,-53.0000,9.640184,-0.034771,-2.437991,0.137851,0.250006,0.126963,0.141528,-0.037938,-0.031163,0.438248,0.439194,-0.132389,0.096406,-0.000345,-0.024362,1.000000,0.000708,-0.000190,-0.000156,-0.999984,-0.001790,0.005410,0.000309,0.205303,-0.619907,-0.036521,0.999941,-0.000637,0.010819,0.000599,0.999993,0.003583,-0.010821,-0.003576,0.999935
05158,2,0,-53.0000,9.523425,0.267676,-2.588674,-0.064114,-0.036046,0.059652,0.163343,-0.024298,-0.039196,0.436684,0.440141,-0.139302,0.095238,0.002679,-0.025873,1.000000,0.000817,-0.000121,-0.000196,-0.999984,-0.001840,0.005277,-0.000529,0.210592,-0.604807,0.059528,0.999944,0.001039,0.010556,-0.001078,0.999993,0.003675,-0.010552,-0.003686,0.999938
05159,2,0,-53.0000,9.470337,0.587036,-2.551423,-0.071330,-0.358437,0.006074,0.169401,-0.000220,-0.037578,0.434272,0.441388,-0.138379,0.094704,0.005874,-0.025509,1.000000,0.000847,-0.000001,-0.000188,-0.999983,-0.001896,0.005252,-0.001386,0.216424,-0.602088,0.157746,0.999941,0.002753,0.010508,-0.002793,0.999989,0.003777,-0.010498,-0.003806,0.999938
05160,2,0,-53.0000,9.432969,0.726464,-2.371482,0.079507,-0.515503,-0.073051,0.108101,-0.003118,-0.029919,0.443806,0.441046,-0.134186,0.094331,0.007263,-0.023709,1.000000,0.000541,-0.000016,-0.000150,-0.999983,-0.001908,0.005228,-0.001936,0.217544,-0.599562,0.220699,0.999938,0.003852,0.010464,-0.003892,0.999985,0.003797,-0.010449,-0.003837,0.999938
05161,2,0,-53.0000,9.483375,0.614227,-2.244655,0.226027,-0.415906,-0.059427,0.031712,-0.000401,-0.021511,0.438378,0.438935,-0.150162,0.094834,0.006136,-0.022445,1.000000,0.000159,-0.000002,-0.000108,-0.999982,-0.001860,0.005209,-0.002108,0.211921,-0.597394,0.240445,0.999937,0.004196,0.010426,-0.004235,0.999984,0.003699,-0.010411,-0.003742,0.999939
05162,2,0,-53.0000,9.577275,0.383087,-2.193887,0.321273,-0.189855,0.013036,-0.015868,-0.003327,-0.013785,0.443626,0.443709,-0.145032,0.095773,0.003823,-0.021938,1.000000,-0.000079,-0.000017,-0.000069,-0.999983,-0.001788,0.005193,-0.002046,0.203668,-0.595466,0.233353,0.999938,0.004073,0.010393,-0.004110,0.999985,0.003554,-0.010378,-0.003597,0.999940
05163,2,0,-53.0000,9.580361,0.163862,-2.260655,0.279825,0.035916,0.028102,-0.021326,-0.014453,-0.007266,0.439727,0.435544,-0.134827,0.095805,0.001633,-0.022600,1.000000,-0.000107,-0.000072,-0.000036,-0.999984,-0.001745,0.005111,-0.001941,0.198859,-0.586012,0.221448,0.999940,0.003865,0.010228,-0.003900,0.999986,0.003471,-0.010214,-0.003510,0.999942
05164,2,0,-53.0000,9.551101,0.123769,-2.315041,0.225077,0.082015,0.012835,-0.006896,-0.012125,-0.010630,0.425075,0.441680,-0.143172,0.095512,0.001232,-0.023145,1.000000,-0.000034,-0.000061,-0.000053,-0.999984,-0.001704,0.005052,-0.001921,0.194131,-0.579243,0.219104,0.999942,0.003824,0.010110,-0.003858,0.999987,0.003388,-0.010096,-0.003427,0.999943
05165,2,0,-53.0000,9.528369,0.194306,-2.414230,0.118731,0.022273,0.017953,0.009045,-0.015887,-0.012406,0.437707,0.445115,-0.142121,0.095286,0.001938,-0.024135,1.000000,0.000045,-0.000079,-0.000062,-0.999984,-0.001677,0.004960,-0.001969,0.191059,-0.568730,0.224730,0.999943,0.003922,0.009926,-0.003955,0.999987,0.003334,-0.009913,-0.003374,0.999945
05166,2,0,-53.0000,9.535796,0.199381,-2.457069,0.080460,0.021684,0.036242,0.016633,-0.015353,-0.008795,0.436450,0.439044,-0.144305,0.095360,0.001992,-0.024563,1.000000,0.000083,-0.000077,-0.000044,-0.999985,-0.001677,0.004887,-0.002029,0.191073,-0.560352,0.231527,0.999944,0.004041,0.009780,-0.004073,0.999986,0.003335,-0.009766,-0.003374,0.999947
05167,2,0,-53.0000,9.523025,0.246435,-2.398289,0.130909,-0.030852,0.009860,0.016635,-0.015353,-0.008796,0.439667,0.437696,-0.145959,0.095232,0.002462,-0.023975,1.000000,0.000083,-0.000077,-0.000044,-0.999985,-0.001678,0.004799,-0.002109,0.191085,-0.550368,0.240799,0.999945,0.004203,0.009606,-0.004235,0.999985,0.003335,-0.009591,-0.003375,0.999948
05168,2,0,-53.0000,9.489599,0.158069,-2.357959,0.171125,0.053121,-0.034889,0.019735,-0.020771,-0.007607,0.427745,0.442375,-0.143914,0.094898,0.001579,-0.023570,1.000000,0.000099,-0.000104,-0.000038,-0.999985,-0.001691,0.004700,-0.002202,0.192558,-0.538991,0.251483,0.999946,0.004389,0.009407,-0.004421,0.999985,0.003361,-0.009392,-0.003402,0.999950
05169,2,0,-53.0000,9.560667,0.087944,-2.310792,0.243906,0.117922,0.019934,0.027986,-0.024861,-0.009181,0.437715,0.437562,-0.140096,0.095610,0.000878,-0.023096,1.000000,0.000140,-0.000124,-0.000046,-0.999985,-0.001709,0.004565,-0.002337,0.194585,-0.523587,0.266949,0.999947,0.004659,0.009138,-0.004690,0.999983,0.003396,-0.009122,-0.003439,0.999952
05170,2,0,-53.0000,9.642257,0.176013,-2.403392,0.169564,0.039002,0.124622,0.041815,-0.014586,-0.015237,0.441979,0.436817,-0.142800,0.096424,0.001758,-0.024027,1.000000,0.000209,-0.000073,-0.000076,-0.999985,-0.001711,0.004493,-0.002535,0.194749,-0.515308,0.289631,0.999947,0.005055,0.008994,-0.005086,0.999981,0.003399,-0.008976,-0.003444,0.999954
05171,2,0,-53.0000,9.556939,0.307174,-2.492729,0.049890,-0.082346,0.068298,0.050639,0.007889,-0.022514,0.440475,0.438500,-0.140609,0.095569,0.003067,-0.024930,1.000000,0.000253,0.000039,-0.000113,-0.999984,-0.001679,0.004514,-0.002801,0.190939,-0.517835,0.320093,0.999944,0.005586,0.009038,-0.005617,0.999979,0.003332,-0.009019,-0.003383,0.999954
05172,2,0,-53.0000,9.453156,0.374272,-2.475612,0.032141,-0.150138,-0.034788,0.042412,0.015427,-0.015081,0.443145,0.435184,-0.144391,0.094530,0.003741,-0.024763,1.000000,0.000212,0.000077,-0.000075,-0.999983,-0.001668,0.004591,-0.003026,0.189549,-0.526635,0.345883,0.999940,0.006037,0.009191,-0.006067,0.999976,0.003308,-0.009171,-0.003364,0.999952
05173,2,0,-53.0000,9.495986,0.356248,-2.381670,0.134026,-0.140736,-0.018033,0.018642,0.015608,-0.015124,0.438763,0.433333,-0.138360,0.094958,0.003558,-0.023824,1.000000,0.000093,0.000078,-0.000076,-0.999983,-0.001626,0.004654,-0.003129,0.184619,-0.533933,0.357659,0.999937,0.006242,0.009319,-0.006272,0.999975,0.003222,-0.009298,-0.003280,0.999951
05174,2,0,-53.0000,9.521471,0.258749,-2.328196,0.199768,-0.047720,-0.009439,-0.004971,0.012060,-0.014950,0.437332,0.432897,-0.141509,0.095214,0.002580,-0.023288,1.000000,-0.000025,0.000060,-0.000075,-0.999983,-0.001555,0.004714,-0.003129,0.176458,-0.540729,0.357748,0.999936,0.006244,0.009437,-0.006273,0.999976,0.003080,-0.009418,-0.003139,0.999951
05175,2,0,-53.0000,9.554708,0.165698,-2.316329,0.227648,0.044968,0.017442,-0.001352,0.009193,-0.013280,0.443079,0.433459,-0.144880,0.095546,0.001650,-0.023168,1.000000,-0.000007,0.000046,-0.000066,-0.999983,-0.001498,0.004746,-0.003132,0.169943,-0.544442,0.358116,0.999935,0.006250,0.009502,-0.006278,0.999976,0.002966,-0.009483,-0.003025,0.999950
05176,2,0,-53.0000,9.549738,0.133007,-2.320147,0.225022,0.078837,0.012862,0.016867,0.004934,-0.014776,0.433702,0.438917,-0.132139,0.095497,0.001325,-0.023204,1.000000,0.000084,0.000025,-0.000074,-0.999982,-0.001460,0.004771,-0.003236,0.165552,-0.547254,0.369987,0.999934,0.006457,0.009551,-0.006485,0.999975,0.002889,-0.009532,-0.002951,0.999950
05177,2,0,-53.0000,9.513988,0.257885,-2.285139,0.238011,-0.048188,-0.027731,0.011646,-0.003156,-0.010017,0.441973,0.438978,-0.144572,0.095140,0.002575,-0.022850,1.000000,0.000058,-0.000016,-0.000050,-0.999982,-0.001442,0.004744,-0.003295,0.163460,-0.544140,0.376859,0.999933,0.006577,0.009497,-0.006604,0.999974,0.002853,-0.009478,-0.002915,0.999951
05178,2,0,-52.0000,9.551350,0.296133,-2.346701,0.185320,-0.080096,0.025108,0.003322,-0.005831,-0.006453,0.442432,0.440745,-0.150021,0.095514,0.002959,-0.023464,1.000000,0.000017,-0.000029,-0.000032,-0.999982,-0.001431,0.004718,-0.003309,0.162173,-0.541216,0.378400,0.999934,0.006604,0.009446,-0.006631,0.999974,0.002830,-0.009427,-0.002893,0.999951
05179,2,0,-52.0000,9.522311,0.255482,-2.400174,0.130845,-0.033989,0.009850,-0.007603,-0.003995,-0.009475,0.439917,0.436582,-0.140961,0.095224,0.002549,-0.024000,1.000000,-0.000038,-0.000020,-0.000047,-0.999983,-0.001390,0.004687,-0.003275,0.157576,-0.537626,0.374549,0.999935,0.006537,0.009383,-0.006563,0.999975,0.002750,-0.009365,-0.002812,0.999952
05180,2,0,-52.0000,9.528689,0.184051,-2.392691,0.146944,0.037115,0.012372,-0.004105,-0.010103,-0.009848,0.442935,0.438860,-0.136478,0.095288,0.001835,-0.023922,1.000000,-0.000021,-0.000051,-0.000049,-0.999983,-0.001356,0.004640,-0.003259,0.153673,-0.532156,0.372733,0.999936,0.006505,0.009288,-0.006530,0.999975,0.002682,-0.009270,-0.002742,0.999953
05181,2,0,-52.0000,9.549872,0.129278,-2.395275,0.156105,0.092555,0.032168,0.002240,-0.007406,-0.011447,0.437546,0.438709,-0.134728,0.095500,0.001288,-0.023949,1.000000,0.000011,-0.000037,-0.000057,-0.999983,-0.001321,0.004590,-0.003275,0.149644,-0.526521,0.374568,0.999936,0.006537,0.009189,-0.006561,0.999975,0.002612,-0.009172,-0.002672,0.999954
05182,2,0,-52.0000,9.530980,0.156392,-2.439995,0.106344,0.070425,0.026080,0.019226,-0.006058,-0.012283,0.440233,0.446036,-0.135220,0.095311,0.001560,-0.024397,1.000000,0.000096,-0.000030,-0.000061,-0.999983,-0.001302,0.004561,-0.003380,0.147472,-0.523100,0.386609,0.999936,0.006747,0.009130,-0.006771,0.999974,0.002574,-0.009112,-0.002635,0.999955
05183,2,0,-52.0000,9.568026,0.287954,-2.405288,0.137609,-0.063255,0.056077,0.020597,0.001863,-0.016938,0.436079,0.434630,-0.136601,0.095680,0.002874,-0.024053,1.000000,0.000103,0.000009,-0.000085,-0.999983,-0.001260,0.004555,-0.003492,0.142616,-0.522453,0.399549,0.999934,0.006973,0.009118,-0.006996,0.999972,0.002489,-0.009101,-0.002553,0.999955
05184,2,0,-52.0000,9.523571,0.239045,-2.375384,0.159137,-0.016489,0.004257,0.015677,0.003568,-0.015953,0.429203,0.439386,-0.140265,0.095235,0.002385,-0.023755,1.000000,0.000078,0.000018,-0.000080,-0.999982,-0.001215,0.004571,-0.003578,0.137361,-0.524311,0.409401,0.999933,0.007145,0.009151,-0.007167,0.999971,0.002397,-0.009133,-0.002463,0.999955
05185,2,0,-52.0000,9.515773,0.235881,-2.333948,0.197393,-0.016434,-0.014032,0.008425,-0.000983,-0.013263,0.441904,0.441481,-0.143033,0.095158,0.002353,-0.023339,1.000000,0.000042,-0.000005,-0.000066,-0.999982,-0.001176,0.004553,-0.003627,0.132884,-0.522239,0.415020,0.999932,0.007243,0.009115,-0.007265,0.999971,0.002319,-0.009098,-0.002385,0.999956
05186,2,0,-52.0000,9.498933,0.241965,-2.351166,0.176040,-0.019807,-0.025713,0.000834,-0.001532,-0.016869,0.442558,0.430914,-0.141188,0.094990,0.002412,-0.023511,1.000000,0.000004,-0.000008,-0.000084,-0.999982,-0.001110,0.004544,-0.003632,0.125317,-0.521217,0.415577,0.999932,0.007253,0.009097,-0.007273,0.999971,0.002187,-0.009081,-0.002253,0.999956
05187,2,0,-52.0000,9.522592,0.251047,-2.303074,0.228288,-0.032319,-0.015047,0.000376,-0.007599,-0.013306,0.449803,0.434800,-0.143200,0.095227,0.002504,-0.023027,1.000000,0.000002,-0.000038,-0.000067,-0.999983,-0.001064,0.004494,-0.003641,0.119999,-0.515361,0.416662,0.999933,0.007272,0.008995,-0.007291,0.999971,0.002094,-0.008979,-0.002160,0.999957
05188,2,0,-52.0000,9.539109,0.247610,-2.286924,0.249363,-0.029466,-0.003361,0.000936,-0.012021,-0.014660,0.438943,0.437830,-0.134862,0.095393,0.002469,-0.022863,1.000000,0.000005,-0.000060,-0.000073,-0.999983,-0.001013,0.004433,-0.003677,0.114257,-0.508464,0.420867,0.999934,0.007345,0.008874,-0.007363,0.999971,0.001994,-0.008859,-0.002059,0.999959
05189,2,0,-52.0000,9.520770,0.267070,-2.405023,0.130816,-0.036574,0.009841,-0.007672,-0.014216,-0.013349,0.440333,0.437947,-0.134488,0.095210,0.002663,-0.024044,1.000000,-0.000038,-0.000071,-0.000067,-0.999983,-0.000959,0.004350,-0.003647,0.108097,-0.498825,0.417417,0.999936,0.007285,0.008706,-0.007302,0.999972,0.001887,-0.008692,-0.001950,0.999960
05190,2,0,-52.0000,9.546945,0.246758,-2.403553,0.142208,-0.015250,0.034224,-0.008633,-0.012552,-0.016300,0.441382,0.442042,-0.142381,0.095471,0.002459,-0.024030,1.000000,-0.000043,-0.000063,-0.000081,-0.999984,-0.000888,0.004285,-0.003621,0.099946,-0.491430,0.414505,0.999937,0.007234,0.008577,-0.007249,0.999972,0.001744,-0.008564,-0.001806,0.999962
05191,2,0,-52.0000,9.526744,0.197808,-2.399328,0.147081,0.034294,0.012380,-0.006083,-0.013541,-0.013752,0.440263,0.441314,-0.146125,0.095269,0.001971,-0.023987,1.000000,-0.000030,-0.000068,-0.000069,-0.999984,-0.000833,0.004205,-0.003599,0.093760,-0.482155,0.412002,0.999939,0.007190,0.008415,-0.007204,0.999973,0.001636,-0.008403,-0.001697,0.999963
05192,2,0,-52.0000,9.519323,0.186905,-2.432164,0.116028,0.049380,0.013399,-0.000764,-0.015937,-0.016310,0.440371,0.436197,-0.135512,0.095195,0.001861,-0.024314,1.000000,-0.000004,-0.000080,-0.000082,-0.999985,-0.000775,0.004125,-0.003600,0.087122,-0.472984,0.412134,0.999940,0.007193,0.008255,-0.007206,0.999973,0.001521,-0.008244,-0.001580,0.999965
05193,2,0,-52.0000,9.565361,0.216996,-2.436147,0.122929,0.020873,0.059622,0.009548,-0.009821,-0.015980,0.435842,0.444319,-0.142109,0.095655,0.002163,-0.024357,1.000000,0.000048,-0.000049,-0.000080,-0.999985,-0.000729,0.004061,-0.003656,0.081824,-0.465712,0.418653,0.999940,0.007307,0.008128,-0.007318,0.999972,0.001428,-0.008117,-0.001487,0.999966
05194,2,0,-51.0000,9.538627,0.240205,-2.439456,0.111278,-0.000946,0.035239,0.018895,-0.002041,-0.018600,0.440057,0.435326,-0.132638,0.095387,0.002395,-0.024393,1.000000,0.000094,-0.000010,-0.000093,-0.999985,-0.000678,0.004049,-0.003757,0.075985,-0.464269,0.430241,0.999939,0.007509,0.008103,-0.007520,0.999971,0.001326,-0.008093,-0.001387,0.999966
05195,2,0,-52.0000,9.517068,0.297198,-2.437728,0.102365,-0.056901,0.015420,0.014089,0.002903,-0.015568,0.441383,0.437210,-0.139594,0.095171,0.002966,-0.024378,1.000000,0.000070,0.000015,-0.000078,-0.999984,-0.000634,0.004049,-0.003837,0.070868,-0.464275,0.439394,0.999938,0.007669,0.008103,-0.007679,0.999970,0.001237,-0.008093,-0.001299,0.999966
05196,2,0,-58.0000,9.519093,0.276973,-2.410533,0.130671,-0.038372,0.009836,0.014486,0.002209,-0.017138,0.443111,0.436717,-0.142355,0.095191,0.002763,-0.024106,1.000000,0.000072,0.000011,-0.000086,-0.999984,-0.000582,0.004058,-0.003929,0.064893,-0.465285,0.450008,0.999936,0.007854,0.008121,-0.007863,0.999968,0.001133,-0.008112,-0.001196,0.999966
05197,2,0,-52.0000,9.519108,0.278379,-2.410312,0.130800,-0.038633,0.009833,0.006106,0.003042,-0.017606,0.445502,0.446180,-0.146566,0.095191,0.002776,-0.024104,1.000000,0.000031,0.000015,-0.000088,-0.999984,-0.000518,0.004058,-0.003973,0.057458,-0.465245,0.455067,0.999935,0.007942,0.008120,-0.007950,0.999968,0.001003,-0.008112,-0.001067,0.999967
05198,2,0,-52.0000,9.542739,0.202474,-2.384645,0.168132,0.035564,0.024073,0.008772,0.005298,-0.013014,0.433890,0.443020,-0.133965,0.095427,0.002020,-0.023849,1.000000,0.000044,0.000026,-0.000065,-0.999983,-0.000478,0.004085,-0.004025,0.052848,-0.468368,0.460992,0.999934,0.008045,0.008174,-0.008053,0.999967,0.000922,-0.008167,-0.000988,0.999966
05199,2,0,-52.0000,9.557591,0.220315,-2.394172,0.161040,0.019625,0.041339,0.011829,0.003407,-0.015862,0.447095,0.438141,-0.138647,0.095576,0.002197,-0.023943,1.000000,0.000059,0.000017,-0.000079,-0.999983,-0.000429,0.004088,-0.004094,0.047203,-0.468640,0.468950,0.999933,0.008184,0.008179,-0.008191,0.999966,0.000824,-0.008172,-0.000891,0.999966
05200,2,0,-52.0000,9.531043,0.243230,-2.396711,0.149396,-0.002179,0.016954,0.015059,0.001242,-0.012623,0.437047,0.436104,-0.141937,0.095310,0.002428,-0.023968,1.000000,0.000075,0.000006,-0.000063,-0.999983,-0.000400,0.004094,-0.004174,0.043850,-0.469363,0.478104,0.999932,0.008344,0.008192,-0.008351,0.999965,0.000765,-0.008185,-0.000834,0.999966
05201,2,0,-52.0000,9.521273,0.261571,-2.382214,0.159218,-0.020900,0.004247,0.014208,0.002693,-0.019403,0.442457,0.438400,-0.137105,0.095213,0.002608,-0.023823,1.000000,0.000071,0.000013,-0.000097,-0.999983,-0.000337,0.004092,-0.004259,0.036652,-0.469021,0.487905,0.999930,0.008515,0.008186,-0.008521,0.999963,0.000640,-0.008180,-0.000709,0.999966
05202,2,0,-52.0000,9.545773,0.262392,-2.406551,0.142166,-0.018377,0.034219,0.011776,-0.003354,-0.013866,0.436639,0.438315,-0.143344,0.095458,0.002619,-0.024064,1.000000,0.000059,-0.000017,-0.000069,-0.999982,-0.000301,0.004075,-0.004326,0.032450,-0.467104,0.495564,0.999929,0.008649,0.008152,-0.008654,0.999962,0.000566,-0.008147,-0.000637,0.999967
05203,2,0,-52.0000,9.540004,0.237914,-2.338250,0.208858,0.000448,0.010350,0.006395,0.002555,-0.015353,0.440871,0.438885,-0.143000,0.095400,0.002373,-0.023384,1.000000,0.000032,0.000013,-0.000077,-0.999982,-0.000248,0.004074,-0.004368,0.026326,-0.466917,0.500432,0.999929,0.008734,0.008149,-0.008738,0.999962,0.000459,-0.008145,-0.000531,0.999967
05204,2,0,-52.0000,9.506376,0.248782,-2.372373,0.166288,-0.006014,-0.013017,0.006679,-0.001384,-0.018966,0.443389,0.436231,-0.141165,0.095064,0.002480,-0.023723,1.000000,0.000033,-0.000007,-0.000095,-0.999982,-0.000179,0.004065,-0.004409,0.018508,-0.465882,0.505218,0.999928,0.008817,0.008131,-0.008820,0.999961,0.000323,-0.008128,-0.000395,0.999967
05205,2,0,-51.0000,9.509094,0.220647,-2.418214,0.125823,0.027546,0.000708,0.005887,0.000006,-0.015830,0.435502,0.439152,-0.134920,0.095091,0.002200,-0.024182,1.000000,0.000029,0.000000,-0.000079,-0.999982,-0.000124,0.004050,-0.004450,0.012191,-0.464212,0.509838,0.999928,0.008898,0.008102,-0.008900,0.999960,0.000213,-0.008100,-0.000285,0.999967
05206,2,0,-51.0000,9.554629,0.259104,-2.348270,0.201484,-0.016022,0.027617,0.012119,-0.000531,-0.019483,0.437145,0.440526,-0.141458,0.095547,0.002583,-0.023482,1.000000,0.000061,-0.000003,-0.000097,-0.999982,-0.000060,0.004045,-0.004525,0.004766,-0.463550,0.518482,0.999926,0.009049,0.008090,-0.009050,0.999959,0.000083,-0.008089,-0.000156,0.999967
05207,2,0,-51.0000,9.567174,0.213840,-2.408352,0.151330,0.035994,0.054050,0.011043,0.001341,-0.018607,0.443562,0.440560,-0.134878,0.095672,0.002131,-0.024084,1.000000,0.000055,0.000007,-0.000093,-0.999981,0.000002,0.004036,-0.004594,-0.002388,-0.462477,0.526393,0.999925,0.009187,0.008072,-0.009187,0.999958,-0.000042,-0.008072,-0.000032,0.999967
05208,2,0,-51.0000,9.545562,0.271270,-2.406402,0.142142,-0.019947,0.034217,0.012573,0.005534,-0.023057,0.440530,0.440836,-0.135810,0.095455,0.002703,-0.024066,1.000000,0.000063,0.000028,-0.000115,-0.999981,0.000086,0.004059,-0.004672,-0.012059,-0.465059,0.535469,0.999923,0.009345,0.008117,-0.009344,0.999956,-0.000210,-0.008118,0.000135,0.999967
05209,2,0,-51.0000,9.526016,0.307493,-2.377277,0.161651,-0.057124,0.008799,0.010989,0.004857,-0.022657,0.440028,0.436164,-0.146819,0.095260,0.003065,-0.023775,1.000000,0.000055,0.000024,-0.000113,-0.999980,0.000170,0.004065,-0.004747,-0.021650,-0.465749,0.544023,0.999922,0.009495,0.008129,-0.009492,0.999955,-0.000378,-0.008132,0.000301,0.999967
05210,2,0,-51.0000,9.521091,0.275238,-2.381401,0.159044,-0.023253,0.004245,0.009066,0.001359,-0.016640,0.439632,0.446346,-0.143922,0.095211,0.002746,-0.023815,1.000000,0.000045,0.000007,-0.000083,-0.999980,0.000225,0.004071,-0.004801,-0.028018,-0.466380,0.550242,0.999921,0.009603,0.008140,-0.009599,0.999954,-0.000489,-0.008144,0.000411,0.999967
05211,2,0,-51.0000,9.521088,0.276688,-2.381243,0.159173,-0.023515,0.004242,0.004534,0.002359,-0.017220,0.440185,0.437269,-0.132927,0.095211,0.002759,-0.023813,1.000000,0.000023,0.000012,-0.000086,-0.999980,0.000290,0.004068,-0.004836,-0.035436,-0.465967,0.554362,0.999920,0.009675,0.008133,-0.009670,0.999953,-0.000618,-0.008138,0.000540,0.999967
05212,2,0,-51.0000,9.528073,0.290533,-2.349694,0.189940,-0.039141,0.003220,0.009351,0.000877,-0.014381,0.434373,0.446195,-0.141701,0.095281,0.002900,-0.023497,1.000000,0.000047,0.000004,-0.000072,-0.999980,0.000334,0.004072,-0.004883,-0.040543,-0.466411,0.559771,0.999919,0.009769,0.008140,-0.009764,0.999952,-0.000708,-0.008147,0.000628,0.999967
05213,2,0,-51.0000,9.523105,0.342763,-2.331141,0.202218,-0.091996,-0.004941,0.004086,-0.003706,-0.013648,0.439410,0.440023,-0.124857,0.095232,0.003422,-0.023310,1.000000,0.000020,-0.000019,-0.000068,-0.999980,0.000379,0.004040,-0.004911,-0.045716,-0.462752,0.563002,0.999919,0.009826,0.008076,-0.009820,0.999951,-0.000798,-0.008084,0.000718,0.999967
05214,2,0,-51.0000,9.533573,0.318530,-2.418512,0.123377,-0.058727,0.027079,-0.000844,-0.002012,-0.012658,0.435554,0.441706,-0.131134,0.095336,0.003179,-0.024184,1.000000,-0.000004,-0.000010,-0.000063,-0.999980,0.000428,0.004030,-0.004902,-0.051309,-0.461587,0.561890,0.999919,0.009806,0.008056,-0.009799,0.999952,-0.000895,-0.008065,0.000816,0.999967
05215,2,0,-51.0000,9.545411,0.365951,-2.382834,0.156865,-0.108496,0.030600,-0.003623,-0.000604,-0.007548,0.434151,0.439613,-0.140879,0.095454,0.003655,-0.023828,1.000000,-0.000018,-0.000003,-0.000038,-0.999980,0.000456,0.004017,-0.004885,-0.054450,-0.460059,0.559984,0.999920,0.009773,0.008029,-0.009766,0.999952,-0.000950,-0.008038,0.000872,0.999967
05216,2,0,-51.0000,9.558187,0.320068,-2.442295,0.106457,-0.056467,0.057047,-0.015193,0.012591,-0.007388,0.439401,0.435586,-0.143351,0.095580,0.003195,-0.024429,1.000000,-0.000076,0.000063,-0.000037,-0.999980,0.000504,0.004083,-0.004800,-0.060054,-0.467588,0.550320,0.999921,0.009604,0.008161,-0.009596,0.999953,-0.001048,-0.008171,0.000970,0.999966
05217,2,0,-51.0000,9.514230,0.270913,-2.411382,0.128271,-0.009686,0.005264,-0.013433,0.009542,-0.007574,0.443909,0.439296,-0.134975,0.095141,0.002704,-0.024119,1.000000,-0.000067,0.000048,-0.000038,-0.999980,0.000550,0.004120,-0.004738,-0.065245,-0.471848,0.543168,0.999921,0.009480,0.008235,-0.009471,0.999955,-0.001139,-0.008246,0.001061,0.999965
05218,2,0,-51.0000,9.529255,0.288572,-2.420065,0.120907,-0.025624,0.022525,-0.011230,0.016015,-0.005458,0.440214,0.442469,-0.131161,0.095291,0.002882,-0.024208,1.000000,-0.000056,0.000080,-0.000027,-0.999980,0.000585,0.004204,-0.004688,-0.069348,-0.481464,0.537546,0.999921,0.009381,0.008403,-0.009372,0.999955,-0.001210,-0.008414,0.001131,0.999964
05219,2,0,-51.0000,9.543573,0.229487,-2.378853,0.168234,0.030100,0.024089,-0.002729,0.014984,-0.008822,0.433859,0.440927,-0.138771,0.095434,0.002290,-0.023796,1.000000,-0.000014,0.000075,-0.000044,-0.999980,0.000625,0.004268,-0.004680,-0.073942,-0.488745,0.536585,0.999920,0.009365,0.008530,-0.009354,0.999955,-0.001290,-0.008542,0.001211,0.999963
05220,2,0,-51.0000,9.558638,0.246916,-2.387390,0.160878,0.014167,0.041351,-0.002163,0.014019,-0.004300,0.437061,0.447526,-0.137127,0.095585,0.002467,-0.023881,1.000000,-0.000011,0.000070,-0.000021,-0.999980,0.000643,0.004342,-0.004658,-0.076011,-0.497235,0.534155,0.999919,0.009322,0.008678,-0.009311,0.999956,-0.001327,-0.008690,0.001246,0.999961
05221,2,0,-51.0000,9.531467,0.277414,-2.316222,0.218504,-0.022701,-0.002364,-0.001989,0.010292,-0.004082,0.444785,0.444756,-0.138512,0.095314,0.002772,-0.023167,1.000000,-0.000010,0.000051,-0.000020,-0.999979,0.000657,0.004385,-0.004647,-0.077620,-0.502121,0.532802,0.999918,0.009299,0.008764,-0.009287,0.999956,-0.001355,-0.008776,0.001273,0.999961
05222,2,0,-52.0000,9.527592,0.320760,-2.369195,0.161484,-0.060483,0.008781,-0.008787,0.011788,-0.004955,0.440379,0.442661,-0.132474,0.095275,0.003204,-0.023698,1.000000,-0.000044,0.000059,-0.000025,-0.999979,0.000685,0.004448,-0.004590,-0.080874,-0.509336,0.526369,0.999918,0.009186,0.008889,-0.009174,0.999957,-0.001411,-0.008902,0.001330,0.999959
05223,2,0,-52.0000,9.527908,0.321271,-2.367856,0.161612,-0.060746,0.008777,-0.009077,0.015727,-0.001342,0.442353,0.433853,-0.142144,0.095277,0.003211,-0.023686,1.000000,-0.000045,0.000079,-0.000007,-0.999979,0.000698,0.004519,-0.004541,-0.082334,-0.517488,0.520775,0.999918,0.009089,0.009032,-0.009076,0.999958,-0.001437,-0.009044,0.001355,0.999958
05224,2,0,-52.0000,9.547911,0.287357,-2.395192,0.142115,-0.024085,0.034208,-0.014340,0.011142,-0.000613,0.442625,0.437210,-0.135125,0.095478,0.002872,-0.023957,1.000000,-0.000072,0.000056,-0.000003,-0.999979,0.000712,0.004581,-0.004471,-0.083984,-0.524586,0.512718,0.999918,0.008948,0.009156,-0.008935,0.999959,-0.001466,-0.009168,0.001384,0.999957
05225,2,0,-52.0000,9.523620,0.288160,-2.369731,0.159158,-0.027120,0.004233,-0.017684,0.013512,-0.000029,0.440797,0.437511,-0.130816,0.095235,0.002879,-0.023704,1.000000,-0.000088,0.000068,-0.000000,-0.999979,0.000729,0.004642,-0.004378,-0.085870,-0.531561,0.502136,0.999919,0.008763,0.009277,-0.008750,0.999961,-0.001499,-0.009290,0.001417,0.999956
05226,2,0,-52.0000,9.525958,0.267130,-2.341501,0.187484,-0.008595,-0.001335,-0.020174,0.010978,0.001465,0.442259,0.433225,-0.138571,0.095258,0.002670,-0.023421,1.000000,-0.000101,0.000055,0.000007,-0.999979,0.000742,0.004704,-0.004283,-0.087299,-0.538624,0.491235,0.999919,0.008573,0.009401,-0.008559,0.999962,-0.001524,-0.009413,0.001443,0.999955
05227,2,0,-52.0000,9.517267,0.276487,-2.398731,0.128272,-0.012241,0.005262,-0.021532,0.013333,0.000077,0.435141,0.437837,-0.139381,0.095171,0.002762,-0.023994,1.000000,-0.000108,0.000067,0.000000,-0.999980,0.000763,0.004764,-0.004172,-0.089684,-0.545507,0.478510,0.999920,0.008351,0.009521,-0.008337,0.999964,-0.001565,-0.009533,0.001486,0.999953
05228,2,0,-52.0000,9.544120,0.339874,-2.371578,0.154251,-0.077699,0.026027,-0.017625,0.009995,0.004015,0.443722,0.444638,-0.137710,0.095440,0.003399,-0.023721,1.000000,-0.000088,0.000050,0.000020,-0.999980,0.000758,0.004823,-0.004080,-0.089164,-0.552262,0.468007,0.999920,0.008168,0.009639,-0.008153,0.999966,-0.001556,-0.009651,0.001477,0.999952
05229,2,0,-53.0000,9.525612,0.366209,-2.414412,0.104720,-0.099799,0.019904,-0.022606,0.015205,0.000950,0.437850,0.440794,-0.138106,0.095254,0.003660,-0.024152,1.000000,-0.000113,0.000076,0.000005,-0.999980,0.000778,0.004892,-0.003963,-0.091330,-0.560266,0.454587,0.999921,0.007934,0.009778,-0.007918,0.999967,-0.001594,-0.009791,0.001516,0.999951
05230,2,0,-53.0000,9.523170,0.311246,-2.390161,0.130582,-0.047151,0.009799,-0.020910,0.019126,0.002593,0.436880,0.442426,-0.135809,0.095229,0.003111,-0.023911,1.000000,-0.000105,0.000096,0.000013,-0.999980,0.000789,0.004996,-0.003849,-0.092633,-0.572115,0.441570,0.999920,0.007706,0.009985,-0.007691,0.999969,-0.001617,-0.009997,0.001540,0.999949
05231,2,0,-53.0000,9.528552,0.345519,-2.383697,0.133159,-0.081553,0.014332,-0.035800,0.020958,0.003495,0.445573,0.445702,-0.136957,0.095283,0.003453,-0.023848,1.000000,-0.000179,0.000105,0.000017,-0.999980,0.000816,0.005096,-0.003666,-0.095670,-0.583560,0.420575,0.999921,0.007340,0.010185,-0.007323,0.999972,-0.001670,-0.010197,0.001595,0.999947
05232,2,0,-53.0000,9.559720,0.281487,-2.324859,0.201456,-0.022754,0.027605,-0.041510,0.020585,0.001733,0.437422,0.445994,-0.137987,0.095595,0.002811,-0.023259,1.000000,-0.000208,0.000103,0.000009,-0.999980,0.000860,0.005206,-0.003454,-0.100597,-0.596181,0.396378,0.999922,0.006918,0.010405,-0.006900,0.999975,-0.001756,-0.010417,0.001684,0.999944
05233,2,0,-53.0000,9.538504,0.252802,-2.344581,0.177923,0.008049,0.011380,-0.050855,0.016235,0.010214,0.443586,0.440242,-0.137419,0.095383,0.002527,-0.023454,1.000000,-0.000254,0.000081,0.000051,-0.999981,0.000872,0.005285,-0.003189,-0.101879,-0.605350,0.365969,0.999924,0.006387,0.010565,-0.006369,0.999978,-0.001778,-0.010576,0.001711,0.999943
05234,2,0,-52.0000,9.556634,0.240164,-2.398572,0.129985,0.025946,0.042388,-0.039301,0.016773,0.009893,0.438343,0.434430,-0.135709,0.095564,0.002402,-0.023994,1.000000,-0.000197,0.000084,0.000049,-0.999981,0.000872,0.005381,-0.002978,-0.101735,-0.616302,0.341856,0.999924,0.005966,0.010756,-0.005947,0.999981,-0.001776,-0.010767,0.001711,0.999941
05235,2,0,-52.0000,9.538360,0.266440,-2.440708,0.080453,0.003854,0.036265,-0.034311,0.021844,0.006910,0.430730,0.441354,-0.134608,0.095381,0.002664,-0.024418,1.000000,-0.000172,0.000109,0.000035,-0.999981,0.000881,0.005487,-0.002798,-0.102706,-0.628456,0.321178,0.999924,0.005605,0.010968,-0.005586,0.999983,-0.001792,-0.010978,0.001731,0.999938
05236,2,0,-53.0000,9.511298,0.296152,-2.368559,0.137813,-0.032996,-0.007460,-0.031486,0.020371,0.011723,0.435558,0.438080,-0.137976,0.095110,0.002963,-0.023696,1.000000,-0.000157,0.000102,0.000059,-0.999980,0.000863,0.005601,-0.002627,-0.100618,-0.641537,0.301564,0.999923,0.005263,0.011197,-0.005244,0.999985,-0.001756,-0.011206,0.001697,0.999936
05237,2,0,-53.0000,9.530511,0.269732,-2.322598,0.187601,-0.011431,-0.001340,-0.037701,0.017452,0.009477,0.438660,0.442243,-0.144919,0.095303,0.002697,-0.023235,1.000000,-0.000189,0.000087,0.000047,-0.999981,0.000862,0.005686,-0.002426,-0.100415,-0.651343,0.278550,0.999924,0.004861,0.011368,-0.004842,0.999987,-0.001752,-0.011376,0.001697,0.999934
05238,2,0,-53.0000,9.535878,0.218593,-2.339886,0.175337,0.040900,0.006854,-0.038324,0.015107,0.012823,0.436169,0.442033,-0.143720,0.095357,0.002188,-0.023406,1.000000,-0.000192,0.000076,0.000064,-0.999981,0.000845,0.005775,-0.002217,-0.098329,-0.661576,0.254573,0.999923,0.004443,0.011546,-0.004423,0.999989,-0.001716,-0.011554,0.001665,0.999932
05239,2,0,-53.0000,9.523349,0.264836,-2.278338,0.225715,-0.011654,-0.019626,-0.039336,0.010009,0.011858,0.430350,0.444753,-0.137289,0.095232,0.002650,-0.022789,1.000000,-0.000197,0.000050,0.000059,-0.999981,0.000831,0.005825,-0.002004,-0.096625,-0.667282,0.230168,0.999924,0.004017,0.011646,-0.003998,0.999991,-0.001686,-0.011653,0.001640,0.999931
05240,2,0,-53.0000,9.548197,0.264405,-2.301677,0.208661,-0.009156,0.010350,-0.042610,0.005412,0.010596,0.438756,0.442611,-0.140131,0.095481,0.002644,-0.023020,1.000000,-0.000213,0.000027,0.000053,-0.999981,0.000826,0.005864,-0.001764,-0.095851,-0.671856,0.202717,0.999925,0.003538,0.011726,-0.003518,0.999992,-0.001673,-0.011732,0.001631,0.999930
05241,2,0,-53.0000,9.543419,0.230471,-2.305713,0.206346,0.024721,0.005820,-0.041927,0.004233,0.011282,0.436302,0.430083,-0.140463,0.095434,0.002305,-0.023060,1.000000,-0.000210,0.000021,0.000056,-0.999981,0.000816,0.005885,-0.001539,-0.094512,-0.674238,0.176872,0.999926,0.003087,0.011767,-0.003068,0.999994,-0.001649,-0.011772,0.001613,0.999929
05242,2,0,-53.0000,9.524785,0.256679,-2.349465,0.156545,0.002642,-0.000303,-0.044923,-0.000852,0.012278,0.429319,0.448496,-0.138777,0.095248,0.002567,-0.023495,1.000000,-0.000225,-0.000004,0.000061,-0.999981,0.000802,0.005894,-0.001309,-0.092795,-0.675323,0.150582,0.999927,0.002628,0.011786,-0.002609,0.999995,-0.001619,-0.011791,0.001589,0.999929
05243,2,0,-53.0000,9.534681,0.239611,-2.363726,0.146995,0.020832,0.012419,-0.040442,0.001674,0.008826,0.433671,0.446831,-0.138972,0.095347,0.002396,-0.023639,1.000000,-0.000202,0.000008,0.000044,-0.999982,0.000800,0.005901,-0.001094,-0.092444,-0.676098,0.125889,0.999928,0.002197,0.011800,-0.002178,0.999996,-0.001613,-0.011803,0.001588,0.999929
05244,2,0,-53.0000,9.549532,0.256410,-2.373227,0.139623,0.004881,0.029670,-0.038575,0.001862,0.010687,0.436288,0.440358,-0.141726,0.095495,0.002565,-0.023734,1.000000,-0.000193,0.000009,0.000053,-0.999982,0.000788,0.005923,-0.000866,-0.090851,-0.678624,0.099732,0.999928,0.001741,0.011844,-0.001722,0.999997,-0.001586,-0.011847,0.001565,0.999929
05245,2,0,-53.0000,9.534804,0.154763,-2.386962,0.132433,0.107043,0.016099,-0.024658,0.001694,0.006859,0.432912,0.438231,-0.142055,0.095348,0.001548,-0.023871,1.000000,-0.000123,0.000008,0.000034,-0.999982,0.000775,0.005928,-0.000729,-0.089265,-0.679280,0.084052,0.999929,0.001467,0.011855,-0.001449,0.999998,-0.001558,-0.011858,0.001541,0.999929
05246,2,0,-53.0000,9.551583,0.234673,-2.345970,0.168059,0.023105,0.024111,-0.013912,0.000168,0.003823,0.437769,0.444169,-0.140617,0.095516,0.002347,-0.023460,1.000000,-0.000070,0.000001,0.000019,-0.999982,0.000761,0.005938,-0.000651,-0.087679,-0.680445,0.075153,0.999929,0.001312,0.011876,-0.001293,0.999998,-0.001530,-0.011878,0.001515,0.999928
05247,2,0,-53.0000,9.531872,0.268699,-2.317126,0.187537,-0.014063,-0.001342,-0.013235,-0.001012,0.004514,0.435465,0.442627,-0.133643,0.095319,0.002688,-0.023171,1.000000,-0.000066,-0.000005,0.000023,-0.999982,0.000743,0.005929,-0.000572,-0.085554,-0.679411,0.066092,0.999929,0.001153,0.011858,-0.001136,0.999998,-0.001493,-0.011859,0.001480,0.999929
05248,2,0,-54.0000,9.524944,0.256580,-2.348830,0.156519,0.001077,-0.000302,-0.015884,-0.003256,-0.000097,0.436967,0.444051,-0.138874,0.095250,0.002564,-0.023487,1.000000,-0.000079,-0.000016,-0.000000,-0.999982,0.000750,0.005920,-0.000489,-0.086311,-0.678313,0.056490,0.999929,0.000986,0.011839,-0.000968,0.999998,-0.001506,-0.011840,0.001495,0.999929
05249,2,0,-54.0000,9.539650,0.273734,-2.358878,0.149407,-0.014878,0.016942,-0.023292,-0.004101,0.002355,0.441081,0.439178,-0.140524,0.095397,0.002736,-0.023587,1.000000,-0.000116,-0.000021,0.000012,-0.999982,0.000754,0.005894,-0.000363,-0.086678,-0.675398,0.042156,0.999930,0.000736,0.011788,-0.000718,0.999999,-0.001513,-0.011789,0.001504,0.999929
05250,2,0,-54.0000,9.549430,0.256973,-2.373578,0.139599,0.003319,0.029671,-0.016280,-0.002567,0.001470,0.433130,0.446110,-0.131474,0.095495,0.002568,-0.023735,1.000000,-0.000081,-0.000013,0.000007,-0.999982,0.000754,0.005889,-0.000283,-0.086628,-0.674816,0.032891,0.999930,0.000574,0.011777,-0.000556,0.999999,-0.001512,-0.011778,0.001505,0.999930
05251,2,0,-54.0000,9.549450,0.257131,-2.373479,0.139725,0.003055,0.029670,-0.017918,0.003719,0.003710,0.440686,0.442243,-0.137627,0.095494,0.002571,-0.023737,1.000000,-0.000090,0.000019,0.000019,-0.999982,0.000749,0.005903,-0.000183,-0.085904,-0.676434,0.021447,0.999930,0.000374,0.011806,-0.000357,0.999999,-0.001499,-0.011806,0.001495,0.999929
05252,2,0,-54.0000,9.534812,0.240701,-2.363086,0.146842,0.018505,0.012426,-0.015075,0.009101,-0.003373,0.432909,0.448456,-0.145095,0.095347,0.002404,-0.023635,1.000000,-0.000075,0.000046,-0.000017,-0.999982,0.000777,0.005953,-0.000111,-0.089090,-0.682143,0.013209,0.999929,0.000231,0.011905,-0.000212,0.999999,-0.001555,-0.011906,0.001552,0.999928
05253,2,0,-54.0000,9.528125,0.228926,-2.393805,0.116080,0.033633,0.013465,-0.006435,0.007782,-0.000614,0.441649,0.442168,-0.136881,0.095280,0.002288,-0.023942,1.000000,-0.000032,0.000039,-0.000003,-0.999982,0.000779,0.005985,-0.000072,-0.089293,-0.685812,0.008831,0.999928,0.000154,0.011969,-0.000135,0.999999,-0.001558,-0.011970,0.001557,0.999927
05254,2,0,-54.0000,9.527251,0.236714,-2.320326,0.184959,0.018280,-0.005858,0.000741,0.005588,-0.001290,0.438476,0.439044,-0.137013,0.095272,0.002367,-0.023206,1.000000,0.000004,0.000028,-0.000006,-0.999982,0.000774,0.006019,-0.000068,-0.088705,-0.689722,0.008318,0.999928,0.000145,0.012038,-0.000127,0.999999,-0.001548,-0.012038,0.001546,0.999926
05255,2,0,-54.0000,9.558897,0.248838,-2.312449,0.199061,0.005381,0.023074,0.004982,0.005077,-0.002955,0.435806,0.450080,-0.138045,0.095588,0.002488,-0.023127,1.000000,0.000025,0.000025,-0.000015,-0.999981,0.000771,0.006036,-0.000087,-0.088368,-0.691702,0.010555,0.999927,0.000184,0.012072,-0.000166,0.999999,-0.001542,-0.012072,0.001540,0.999926
05256,2,0,-54.0000,9.540339,0.275379,-2.355898,0.149263,-0.016679,0.016942,0.004584,0.005765,-0.001385,0.438150,0.439647,-0.143004,0.095403,0.002754,-0.023562,1.000000,0.000023,0.000029,-0.000007,-0.999981,0.000761,0.006071,-0.000106,-0.087335,-0.695652,0.012621,0.999926,0.000220,0.012141,-0.000202,0.999999,-0.001524,-0.012141,0.001522,0.999925
05257,2,0,-54.0000,9.530605,0.292594,-2.340931,0.159062,-0.035393,0.004208,-0.001120,0.005401,-0.003158,0.437042,0.442276,-0.140669,0.095305,0.002924,-0.023412,1.000000,-0.000006,0.000027,-0.000016,-0.999981,0.000768,0.006090,-0.000096,-0.088023,-0.697810,0.011526,0.999926,0.000201,0.012179,-0.000182,0.999999,-0.001536,-0.012179,0.001534,0.999925
05258,2,0,-54.0000,9.520828,0.310029,-2.326097,0.168595,-0.054105,-0.008521,-0.005472,0.002677,-0.003548,0.435945,0.442569,-0.142898,0.095208,0.003098,-0.023262,1.000000,-0.000027,0.000013,-0.000018,-0.999981,0.000780,0.006108,-0.000073,-0.089406,-0.699944,0.008929,0.999925,0.000156,0.012216,-0.000137,0.999999,-0.001560,-0.012216,0.001559,0.999924
05259,2,0,-54.0000,9.564163,0.283849,-2.306222,0.201477,-0.029808,0.027585,-0.009148,-0.001229,-0.003247,0.432806,0.444167,-0.131890,0.095642,0.002836,-0.023062,1.000000,-0.000046,-0.000006,-0.000016,-0.999981,0.000793,0.006094,-0.000024,-0.090943,-0.698325,0.003305,0.999926,0.000058,0.012188,-0.000038,0.999999,-0.001587,-0.012188,0.001587,0.999924
05260,2,0,-53.0000,9.545461,0.310872,-2.350210,0.151676,-0.051866,0.021450,-0.019490,-0.000394,-0.001787,0.433930,0.445927,-0.144112,0.095455,0.003106,-0.023502,1.000000,-0.000097,-0.000002,-0.000009,-0.999981,0.000815,0.006098,0.000077,-0.093307,-0.698770,-0.008234,0.999926,-0.000144,0.012196,0.000164,0.999999,-0.001628,-0.012195,0.001630,0.999924
05261,2,0,-53.0000,9.545478,0.311290,-2.350087,0.151801,-0.052130,0.021447,-0.020684,0.001670,0.002920,0.439080,0.441707,-0.145036,0.095455,0.003112,-0.023502,1.000000,-0.000103,0.000008,0.000015,-0.999981,0.000815,0.006101,0.000189,-0.093302,-0.699179,-0.021119,0.999925,-0.000369,0.012203,0.000388,0.999999,-0.001628,-0.012202,0.001633,0.999924
05262,2,0,-52.0000,9.506069,0.294826,-2.316027,0.175808,-0.039461,-0.025768,-0.025830,0.000321,0.005666,0.432986,0.446420,-0.138529,0.095061,0.002948,-0.023161,1.000000,-0.000129,0.000002,0.000028,-0.999981,0.000808,0.006113,0.000332,-0.092418,-0.700577,-0.037426,0.999925,-0.000653,0.012227,0.000673,0.999998,-0.001613,-0.012226,0.001621,0.999924
05263,2,0,-52.0000,9.544429,0.234368,-2.301134,0.206261,0.018975,0.005835,-0.023005,-0.004597,0.004598,0.440651,0.440928,-0.140911,0.095445,0.002343,-0.023009,1.000000,-0.000115,-0.000023,0.000023,-0.999981,0.000801,0.006087,0.000458,-0.091473,-0.697516,-0.051953,0.999925,-0.000907,0.012174,0.000926,0.999998,-0.001596,-0.012172,0.001608,0.999925
05264,2,0,-52.0000,9.547337,0.205140,-2.347474,0.165571,0.052564,0.019616,-0.017977,-0.003053,0.005680,0.435918,0.434262,-0.141624,0.095474,0.002052,-0.023473,1.000000,-0.000090,-0.000015,0.000028,-0.999981,0.000783,0.006081,0.000558,-0.089319,-0.696908,-0.063386,0.999925,-0.001106,0.012163,0.001125,0.999998,-0.001559,-0.012161,0.001572,0.999925
05265,2,0,-52.0000,9.562045,0.221563,-2.357571,0.158455,0.036603,0.036855,-0.008665,-0.005556,0.009133,0.433113,0.434345,-0.139831,0.095621,0.002219,-0.023573,1.000000,-0.000043,-0.000028,0.000046,-0.999981,0.000734,0.006052,0.000621,-0.083718,-0.693555,-0.070703,0.999926,-0.001234,0.012105,0.001252,0.999998,-0.001461,-0.012103,0.001476,0.999926
05266,2,0,-52.0000,9.543253,0.247610,-2.402011,0.108644,0.014544,0.030718,-0.002722,-0.005580,0.003248,0.436961,0.448498,-0.137859,0.095433,0.002477,-0.024017,1.000000,-0.000014,-0.000028,0.000016,-0.999981,0.000706,0.006033,0.000630,-0.080485,-0.691374,-0.071670,0.999926,-0.001251,0.012066,0.001268,0.999998,-0.001405,-0.012065,0.001420,0.999926
05267,2,0,-51.0000,9.528420,0.314916,-2.368662,0.130540,-0.056761,0.009749,0.012358,-0.000952,0.006498,0.441202,0.454971,-0.137010,0.095284,0.003154,-0.023686,1.000000,0.000062,-0.000005,0.000032,-0.999981,0.000645,0.006025,0.000588,-0.073514,-0.690473,-0.066902,0.999927,-0.001168,0.012051,0.001183,0.999998,-0.001283,-0.012049,0.001297,0.999927
05268,2,0,-51.0000,9.554982,0.376688,-2.342458,0.156483,-0.122251,0.030445,0.003814,-0.006700,0.011801,0.435957,0.449980,-0.141128,0.095550,0.003773,-0.023421,1.000000,0.000019,-0.000033,0.000059,-0.999982,0.000568,0.006004,0.000600,-0.064642,-0.688080,-0.068394,0.999927,-0.001194,0.012009,0.001207,0.999999,-0.001128,-0.012008,0.001143,0.999927
05269,2,0,-50.0000,9.513555,0.465226,-2.312013,0.166828,-0.215054,-0.014958,-0.018168,-0.006198,0.017371,0.438314,0.438676,-0.142036,0.095136,0.004658,-0.023118,1.000000,-0.000091,-0.000031,0.000087,-0.999982,0.000492,0.005976,0.000720,-0.055861,-0.684850,-0.082223,0.999928,-0.001435,0.011953,0.001447,0.999998,-0.000975,-0.011951,0.000992,0.999928
05270,2,0,-50.0000,9.551779,0.403499,-2.297832,0.197022,-0.156623,0.016656,-0.041675,-0.013337,0.021476,0.438642,0.443808,-0.132751,0.095519,0.004040,-0.022973,1.000000,-0.000208,-0.000067,0.000107,-0.999982,0.000423,0.005928,0.000958,-0.047878,-0.679338,-0.109453,0.999928,-0.001910,0.011856,0.001920,0.999998,-0.000836,-0.011855,0.000858,0.999929
05271,2,0,-50.0000,9.515047,0.356634,-2.311124,0.180746,-0.110092,-0.016779,-0.052911,-0.014358,0.024009,0.443709,0.447235,-0.141507,0.095152,0.003572,-0.023105,1.000000,-0.000265,-0.000072,0.000120,-0.999982,0.000357,0.005863,0.001255,-0.040080,-0.671860,-0.143606,0.999928,-0.002506,0.011726,0.002515,0.999997,-0.000699,-0.011724,0.000729,0.999931
05272,2,0,-50.0000,9.517700,0.326176,-2.358504,0.140069,-0.076486,-0.002995,-0.062908,-0.017551,0.031743,0.437374,0.439512,-0.132906,0.095179,0.003269,-0.023578,1.000000,-0.000315,-0.000088,0.000159,-0.999982,0.000266,0.005798,0.001599,-0.029418,-0.664467,-0.183033,0.999928,-0.003194,0.011597,0.003200,0.999995,-0.000513,-0.011595,0.000550,0.999933
05273,2,0,-50.0000,9.529142,0.286099,-2.347678,0.158983,-0.039556,0.004194,-0.061193,-0.017063,0.027509,0.429461,0.439042,-0.142870,0.095293,0.002867,-0.023470,1.000000,-0.000306,-0.000085,0.000138,-0.999982,0.000192,0.005721,0.001941,-0.020765,-0.655644,-0.222334,0.999927,-0.003880,0.011443,0.003885,0.999992,-0.000362,-0.011441,0.000407,0.999934
05274,2,0,-49.0000,9.557126,0.156396,-2.344022,0.184336,0.087175,0.026823,-0.050967,-0.017715,0.029868,0.437307,0.443783,-0.138462,0.095573,0.001572,-0.023432,1.000000,-0.000255,-0.000089,0.000149,-0.999982,0.000094,0.005655,0.002226,-0.009339,-0.648071,-0.255034,0.999926,-0.004451,0.011311,0.004453,0.999990,-0.000163,-0.011310,0.000213,0.999936
05275,2,0,-49.0000,9.496741,0.186703,-2.382220,0.130485,0.059324,-0.020988,-0.054167,-0.015531,0.026613,0.443315,0.447495,-0.151280,0.094969,0.001873,-0.023815,1.000000,-0.000271,-0.000078,0.000133,-0.999981,0.000016,0.005585,0.002533,-0.000244,-0.640054,-0.290291,0.999925,-0.005066,0.011171,0.005067,0.999987,-0.000004,-0.011171,0.000061,0.999938
05276,2,0,-50.0000,9.534834,0.209962,-2.344923,0.175197,0.031005,0.006893,-0.054157,-0.022367,0.014824,0.431072,0.452860,-0.143318,0.095351,0.002100,-0.023439,1.000000,-0.000271,-0.000112,0.000074,-0.999981,-0.000009,0.005489,0.002816,0.002774,-0.629012,-0.322707,0.999924,-0.005632,0.010978,0.005632,0.999984,0.000048,-0.010978,0.000013,0.999940
05277,2,0,-50.0000,9.511593,0.188475,-2.296253,0.220693,0.046742,-0.028628,-0.049241,-0.027479,0.007950,0.438400,0.441380,-0.132684,0.095119,0.001883,-0.022950,1.000000,-0.000246,-0.000137,0.000040,-0.999981,-0.000010,0.005350,0.003077,0.002981,-0.613083,-0.352585,0.999924,-0.006153,0.010700,0.006153,0.999981,0.000052,-0.010700,0.000014,0.999943
05278,2,0,-50.0000,9.545294,0.172185,-2.337846,0.193984,0.067681,0.014092,-0.055441,-0.033791,-0.000222,0.436736,0.440451,-0.145652,0.095457,0.001715,-0.023363,1.000000,-0.000277,-0.000169,-0.000001,-0.999981,0.000034,0.005188,0.003355,-0.001946,-0.594560,-0.384482,0.999924,-0.006710,0.010377,0.006711,0.999977,-0.000034,-0.010376,0.000104,0.999946
05279,2,0,-51.0000,9.536359,0.084152,-2.324280,0.217722,0.154456,-0.000438,-0.053290,-0.037526,-0.002001,0.434755,0.449092,-0.133192,0.095368,0.000834,-0.023225,1.000000,-0.000266,-0.000188,-0.000010,-0.999981,0.000081,0.004994,0.003624,-0.007265,-0.572324,-0.415237,0.999924,-0.007247,0.009989,0.007248,0.999974,-0.000127,-0.009988,0.000199,0.999950
05280,2,0,-57.0000,9.521737,0.146044,-2.366799,0.170336,0.098265,-0.002088,-0.043188,-0.041415,-0.001707,0.437728,0.444412,-0.140859,0.095222,0.001455,-0.023649,1.000000,-0.000216,-0.000207,-0.000009,-0.999981,0.000112,0.004794,0.003835,-0.010749,-0.549397,-0.439460,0.999925,-0.007670,0.009589,0.007672,0.999971,-0.000188,-0.009587,0.000261,0.999954
05281,2,0,-52.0000,9.530828,0.214706,-2.360727,0.175307,0.029705,0.006895,-0.028516,-0.039540,-0.002769,0.443454,0.446799,-0.140423,0.095313,0.002142,-0.023589,1.000000,-0.000143,-0.000198,-0.000014,-0.999982,0.000129,0.004589,0.003984,-0.012730,-0.525969,-0.456455,0.999926,-0.007966,0.009180,0.007969,0.999968,-0.000222,-0.009178,0.000295,0.999958
05282,2,0,-52.0000,9.549771,0.265967,-2.368950,0.170350,-0.020400,0.028621,-0.023092,-0.035279,0.002639,0.437876,0.448498,-0.134566,0.095502,0.002658,-0.023673,1.000000,-0.000115,-0.000176,0.000013,-0.999982,0.000116,0.004422,0.004095,-0.011191,-0.506800,-0.469162,0.999927,-0.008188,0.008845,0.008190,0.999966,-0.000195,-0.008843,0.000268,0.999961
05283,2,0,-53.0000,9.530450,0.377277,-2.391536,0.135312,-0.129193,0.018704,-0.004537,-0.036778,0.005502,0.433200,0.445374,-0.140108,0.095309,0.003775,-0.023898,1.000000,-0.000023,-0.000184,0.000028,-0.999982,0.000063,0.004236,0.004138,-0.005225,-0.485431,-0.474135,0.999930,-0.008275,0.008472,0.008276,0.999966,-0.000091,-0.008471,0.000161,0.999964
05284,2,0,-53.0000,9.534645,0.411030,-2.389935,0.137604,-0.163592,0.023191,-0.031143,-0.034941,0.004391,0.434473,0.446948,-0.140715,0.095351,0.004109,-0.023883,1.000000,-0.000156,-0.000175,0.000022,-0.999982,0.000052,0.004071,0.004300,-0.003992,-0.466527,-0.492768,0.999930,-0.008600,0.008142,0.008601,0.999963,-0.000070,-0.008141,0.000140,0.999967
05285,2,0,-53.0000,9.482370,0.348614,-2.395963,0.128576,-0.101341,-0.027458,-0.044266,-0.039505,0.012895,0.434160,0.444955,-0.142909,0.094828,0.003487,-0.023942,1.000000,-0.000221,-0.000198,0.000064,-0.999982,0.000015,0.003875,0.004545,0.000275,-0.444039,-0.520843,0.999929,-0.009090,0.007750,0.009090,0.999959,0.000005,-0.007750,0.000066,0.999970
05286,2,0,-53.0000,9.504319,0.454546,-2.426013,0.097570,-0.204351,0.004285,-0.056479,-0.042208,0.020320,0.429171,0.447818,-0.137215,0.095048,0.004548,-0.024241,1.000000,-0.000282,-0.000211,0.000102,-0.999981,-0.000043,0.003683,0.004855,0.006974,-0.422000,-0.556399,0.999926,-0.009711,0.007365,0.009710,0.999953,0.000122,-0.007366,-0.000050,0.999973
05287,2,0,-53.0000,9.493283,0.386110,-2.439765,0.092847,-0.136318,-0.004693,-0.071720,-0.043042,0.030588,0.435318,0.453120,-0.136389,0.094937,0.003867,-0.024379,1.000000,-0.000359,-0.000215,0.000153,-0.999980,-0.000131,0.003479,0.005256,0.017053,-0.398528,-0.602379,0.999921,-0.010513,0.006956,0.010511,0.999945,0.000298,-0.006958,-0.000224,0.999976
05288,2,0,-53.0000,9.518320,0.369378,-2.368310,0.173271,-0.130188,0.000405,-0.064638,-0.041663,0.039605,0.437891,0.448833,-0.140144,0.095187,0.003705,-0.023664,1.000000,-0.000323,-0.000208,0.000198,-0.999979,-0.000269,0.003299,0.005638,0.032993,-0.377848,-0.646183,0.999915,-0.011278,0.006595,0.011274,0.999936,0.000576,-0.006601,-0.000501,0.999978
05289,2,0,-53.0000,9.532250,0.383888,-2.381795,0.166145,-0.146158,0.017630,-0.069061,-0.044202,0.043001,0.431200,0.444796,-0.141580,0.095327,0.003851,-0.023798,1.000000,-0.000345,-0.000221,0.000215,-0.999977,-0.000421,0.003095,0.006043,0.050330,-0.354421,-0.692595,0.999908,-0.012088,0.006186,0.012082,0.999927,0.000878,-0.006196,-0.000804,0.999980
05290,2,0,-53.0000,9.518102,0.257837,-2.374262,0.187207,-0.025227,-0.001358,-0.075714,-0.042834,0.052000,0.434243,0.450767,-0.136597,0.095185,0.002594,-0.023723,1.000000,-0.000379,-0.000214,0.000260,-0.999975,-0.000605,0.002917,0.006483,0.071528,-0.333821,-0.743151,0.999899,-0.012970,0.005826,0.012963,0.999915,0.001248,-0.005842,-0.001173,0.999982
05291,2,0,-52.0000,9.560501,0.227853,-2.359188,0.220094,-0.000974,0.034770,-0.077280,-0.046908,0.046454,0.429677,0.449468,-0.137863,0.095610,0.002292,-0.023570,1.000000,-0.000386,-0.000235,0.000232,-0.999972,-0.000764,0.002702,0.006932,0.089646,-0.309016,-0.794652,0.999889,-0.013869,0.005393,0.013860,0.999903,0.001565,-0.005414,-0.001490,0.999984
05292,2,0,-51.0000,9.583932,0.225085,-2.388005,0.203049,0.001509,0.064750,-0.083264,-0.050125,0.050223,0.426255,0.444351,-0.139953,0.095845,0.002265,-0.023857,1.000000,-0.000416,-0.000251,0.000251,-0.999969,-0.000933,0.002486,0.007415,0.109043,-0.284067,-0.849921,0.999878,-0.014833,0.004958,0.014824,0.999888,0.001903,-0.004986,-0.001829,0.999986
05293,2,0,-50.0000,9.489134,0.080524,-2.413407,0.175227,0.144738,-0.023764,-0.078106,-0.059113,0.053372,0.428335,0.440951,-0.131155,0.094898,0.000821,-0.024106,1.000000,-0.000391,-0.000296,0.000267,-0.999966,-0.001130,0.002214,0.007878,0.131485,-0.252675,-0.903095,0.999866,-0.015761,0.004410,0.015751,0.999873,0.002295,-0.004446,-0.002225,0.999988
05294,2,0,-50.0000,9.515687,0.223987,-2.366780,0.215647,-0.007515,-0.006896,-0.070931,-0.061323,0.052641,0.431719,0.446696,-0.133109,0.095164,0.002257,-0.023639,1.000000,-0.000355,-0.000307,0.000263,-0.999963,-0.001334,0.001944,0.008299,0.154658,-0.221453,-0.951289,0.999855,-0.016602,0.003865,0.016592,0.999859,0.002699,-0.003909,-0.002635,0.999989
05295,2,0,-50.0000,9.509914,0.271733,-2.352578,0.227850,-0.060372,-0.015169,-0.091115,-0.063672,0.048063,0.431550,0.444996,-0.133062,0.095106,0.002729,-0.023497,1.000000,-0.000456,-0.000318,0.000240,-0.999959,-0.001490,0.001646,0.008819,0.172412,-0.187091,-1.010874,0.999839,-0.017642,0.003265,0.017632,0.999840,0.003009,-0.003318,-0.002951,0.999990
05296,2,0,-50.0000,9.484019,0.269123,-2.334462,0.244640,-0.063341,-0.045144,-0.098704,-0.074349,0.054100,0.427825,0.447801,-0.133801,0.094848,0.002705,-0.023311,1.000000,-0.000494,-0.000372,0.000271,-0.999954,-0.001670,0.001311,0.009369,0.192798,-0.148397,-1.073860,0.999821,-0.018741,0.002590,0.018732,0.999819,0.003365,-0.002653,-0.003316,0.999991
05297,2,0,-50.0000,9.534339,0.322197,-2.411546,0.184889,-0.111033,0.024816,-0.107705,-0.079082,0.054782,0.425577,0.443505,-0.137484,0.095352,0.003235,-0.024080,1.000000,-0.000539,-0.000395,0.000274,-0.999948,-0.001845,0.000940,0.009980,0.212513,-0.105571,-1.143818,0.999799,-0.019962,0.001843,0.019955,0.999794,0.003709,-0.001916,-0.003672,0.999991
05298,2,0,-50.0000,9.512531,0.269264,-2.414313,0.189585,-0.061426,0.003113,-0.133881,-0.077678,0.055891,0.430875,0.450532,-0.139462,0.095134,0.002703,-0.024108,1.000000,-0.000669,-0.000388,0.000279,-0.999940,-0.001989,0.000589,0.010712,0.228676,-0.065025,-1.227657,0.999770,-0.021425,0.001135,0.021420,0.999763,0.003991,-0.001220,-0.003966,0.999991
05299,2,0,-52.0000,9.471668,0.244017,-2.460439,0.144856,-0.033608,-0.024752,-0.135593,-0.081410,0.057928,0.432938,0.448221,-0.135728,0.094726,0.002451,-0.024567,1.000000,-0.000678,-0.000407,0.000290,-0.999932,-0.002143,0.000207,0.011462,0.245883,-0.020950,-1.313496,0.999737,-0.022923,0.000366,0.022921,0.999728,0.004291,-0.000464,-0.004282,0.999991
05300,2,0,-54.0000,9.478107,0.140832,-2.508649,0.120557,0.071323,-0.008197,-0.130473,-0.086845,0.057005,0.428904,0.443983,-0.134861,0.094792,0.001419,-0.025046,1.000000,-0.000652,-0.000434,0.000285,-0.999923,-0.002303,-0.000188,0.012172,0.263594,0.024786,-1.394769,0.999704,-0.024341,-0.000433,0.024343,0.999693,0.004601,0.000320,-0.004610,0.999989
05301,2,0,-53.0000,9.532098,0.156034,-2.461087,0.186742,0.046007,0.031356,-0.112204,-0.087915,0.057513,0.426926,0.456719,-0.134058,0.095331,0.001574,-0.024570,1.000000,-0.000561,-0.000440,0.000288,-0.999915,-0.002490,-0.000602,0.012809,0.284404,0.072586,-1.467689,0.999671,-0.025613,-0.001267,0.025619,0.999659,0.004964,0.001139,-0.004995,0.999987
05302,2,0,-52.0000,9.506383,0.040613,-2.517529,0.148481,0.163619,0.019001,-0.099550,-0.092883,0.060226,0.423716,0.445941,-0.135953,0.095075,0.000422,-0.025131,1.000000,-0.000498,-0.000464,0.000301,-0.999906,-0.002709,-0.001025,0.013380,0.308824,0.121581,-1.532981,0.999640,-0.026752,-0.002122,0.026763,0.999627,0.005390,0.001977,-0.005445,0.999983
05303,2,0,-51.0000,9.553954,0.121434,-2.549506,0.129274,0.082070,0.075148,-0.076600,-0.091940,0.059597,0.428079,0.444226,-0.137925,0.095551,0.001233,-0.025452,1.000000,-0.000383,-0.000460,0.000298,-0.999899,-0.002956,-0.001456,0.013849,0.336391,0.171506,-1.586574,0.999612,-0.027687,-0.002993,0.027704,0.999599,0.005871,0.002830,-0.005952,0.999978
05304,2,0,-50.0000,9.527461,0.117453,-2.533524,0.146044,0.079083,0.045176,-0.052399,-0.089807,0.056348,0.426614,0.449894,-0.133464,0.095286,0.001195,-0.025293,1.000000,-0.000262,-0.000449,0.000282,-0.999892,-0.003219,-0.001864,0.014183,0.365791,0.218827,-1.624657,0.999591,-0.028352,-0.003819,0.028376,0.999577,0.006384,0.003637,-0.006490,0.999972
05305,2,0,-50.0000,9.478222,0.078974,-2.612829,0.070438,0.122315,0.018379,-0.047474,-0.094952,0.063079,0.427555,0.455915,-0.134233,0.094794,0.000813,-0.026083,1.000000,-0.000237,-0.000475,0.000315,-0.999886,-0.003523,-0.002307,0.014517,0.399883,0.270216,-1.662688,0.999568,-0.029015,-0.004716,0.029048,0.999554,0.006979,0.004512,-0.007113,0.999965
05306,2,0,-50.0000,9.541067,0.180690,-2.581311,0.112734,0.009963,0.072401,-0.025466,-0.088956,0.065463,0.429670,0.455338,-0.147489,0.095422,0.001835,-0.025771,1.000000,-0.000127,-0.000445,0.000327,-0.999880,-0.003865,-0.002705,0.014739,0.438306,0.316519,-1.687888,0.999551,-0.029454,-0.005524,0.029496,0.999536,0.007650,0.005296,-0.007809,0.999955
05307,2,0,-49.0000,9.512643,0.197135,-2.591016,0.101301,-0.011771,0.047951,-0.006014,-0.081924,0.065323,0.421876,0.450563,-0.135189,0.095136,0.002002,-0.025871,1.000000,-0.000030,-0.000410,0.000327,-0.999876,-0.004229,-0.003081,0.014875,0.479322,0.360219,-1.703161,0.999538,-0.029721,-0.006287,0.029773,0.999522,0.008365,0.006035,-0.008549,0.999945
05308,2,0,-50.0000,9.489659,0.353358,-2.594173,0.078033,-0.173146,0.029677,-0.004926,-0.063116,0.066478,0.424584,0.442349,-0.129606,0.094904,0.003564,-0.025912,1.000000,-0.000025,-0.000316,0.000332,-0.999871,-0.004590,-0.003348,0.015005,0.520166,0.391553,-1.717766,0.999527,-0.029975,-0.006834,0.030037,0.999508,0.009078,0.006558,-0.009279,0.999935
05309,2,0,-50.0000,9.464033,0.234504,-2.647853,0.040031,-0.055546,0.017335,0.024535,-0.053111,0.068520,0.429455,0.447458,-0.131466,0.094647,0.002381,-0.026453,1.000000,0.000123,-0.000266,0.000343,-0.999869,-0.004994,-0.003578,0.014995,0.566089,0.418507,-1.716302,0.999525,-0.029950,-0.007304,0.030021,0.999500,0.009880,0.007005,-0.010094,0.999925
05310,2,0,-49.0000,9.484838,0.182521,-2.510457,0.187065,-0.030374,-0.001370,0.037488,-0.044906,0.073589,0.425170,0.451452,-0.135597,0.094853,0.001865,-0.025083,1.000000,0.000187,-0.000225,0.000368,-0.999867,-0.005434,-0.003751,0.014904,0.616277,0.439010,-1.705665,0.999528,-0.029764,-0.007662,0.029846,0.999497,0.010756,0.007338,-0.010979,0.999913
05311,2,0,-49.0000,9.463317,0.123850,-2.510849,0.192019,0.019227,-0.023059,0.044354,-0.050062,0.078349,0.425608,0.443915,-0.140280,0.094639,0.001281,-0.025085,1.000000,0.000222,-0.000250,0.000392,-0.999865,-0.005911,-0.003958,0.014812,0.670540,0.463538,-1.694690,0.999530,-0.029573,-0.008090,0.029666,0.999491,0.011702,0.007740,-0.011937,0.999899
05312,2,0,-50.0000,9.488287,0.199763,-2.514391,0.189455,-0.065051,0.003092,0.028505,-0.049599,0.074269,0.435713,0.442895,-0.131938,0.094888,0.002036,-0.025120,1.000000,0.000143,-0.000248,0.000371,-0.999862,-0.006346,-0.004153,0.014781,0.720081,0.486609,-1.690883,0.999529,-0.029506,-0.008493,0.029612,0.999482,0.012567,0.008118,-0.012813,0.999885
05313,2,0,-50.0000,9.504871,0.191851,-2.429855,0.279796,-0.077394,-0.004564,0.028367,-0.056093,0.083714,0.429076,0.456033,-0.133388,0.095055,0.001962,-0.024272,1.000000,0.000142,-0.000280,0.000419,-0.999858,-0.006829,-0.004388,0.014774,0.775105,0.514365,-1.689561,0.999525,-0.029483,-0.008977,0.029603,0.999470,0.013527,0.008574,-0.013787,0.999868
05314,2,0,-52.0000,9.507216,0.239458,-2.456051,0.253627,-0.130517,0.005424,0.010579,-0.055616,0.081606,0.429977,0.442283,-0.130344,0.095078,0.002435,-0.024534,1.000000,0.000053,-0.000278,0.000408,-0.999853,-0.007277,-0.004611,0.014822,0.826038,0.540696,-1.694681,0.999518,-0.029572,-0.009437,0.029706,0.999455,0.014416,0.009005,-0.014689,0.999852
05315,2,0,-54.0000,9.488963,0.237372,-2.478083,0.232528,-0.133810,-0.006277,-0.020434,-0.059283,0.081929,0.427673,0.455061,-0.138066,0.094896,0.002410,-0.024753,1.000000,-0.000102,-0.000296,0.000410,-0.999845,-0.007688,-0.004866,0.015047,0.872522,0.570769,-1.719998,0.999500,-0.030014,-0.009962,0.030163,0.999429,0.015227,0.009499,-0.015520,0.999834
05316,2,0,-55.0000,9.498957,0.190499,-2.472578,0.251205,-0.096870,0.000958,-0.036699,-0.061258,0.094819,0.430217,0.448421,-0.138266,0.094996,0.001945,-0.024697,1.000000,-0.000183,-0.000306,0.000474,-0.999836,-0.008138,-0.005111,0.015350,0.923514,0.599957,-1.754334,0.999476,-0.030612,-0.010471,0.030779,0.999396,0.016117,0.009971,-0.016431,0.999815
05317,2,0,-56.0000,9.471380,0.204924,-2.480057,0.239770,-0.118597,-0.023502,-0.069879,-0.067804,0.102612,0.428957,0.448262,-0.130821,0.094721,0.002089,-0.024769,1.000000,-0.000349,-0.000339,0.000513,-0.999823,-0.008585,-0.005399,0.015842,0.973901,0.634218,-1.810122,0.999440,-0.031585,-0.011069,0.031771,0.999351,0.016996,0.010525,-0.017338,0.999794
05318,2,0,-54.0000,9.490907,0.006156,-2.536983,0.222215,0.076108,0.008639,-0.094718,-0.068321,0.112798,0.428863,0.450825,-0.144985,0.094918,0.000103,-0.025337,1.000000,-0.000474,-0.000342,0.000564,-0.999808,-0.009046,-0.005673,0.016446,1.025833,0.667046,-1.878822,0.999395,-0.032784,-0.011642,0.032989,0.999295,0.017902,0.011047,-0.018275,0.999772
05319,2,0,-52.0000,9.508322,-0.030823,-2.500821,0.272018,0.097612,0.014811,-0.078126,-0.069890,0.121210,0.436393,0.450038,-0.128579,0.095092,-0.000260,-0.024975,1.000000,-0.000391,-0.000349,0.000606,-0.999792,-0.009572,-0.005961,0.017003,1.085133,0.701643,-1.941967,0.999351,-0.033885,-0.012246,0.034113,0.999239,0.018937,0.011595,-0.019342,0.999746
05320,2,0,-51.0000,9.514452,-0.063402,-2.595696,0.193212,0.130907,0.046926,-0.042759,-0.070431,0.123020,0.424692,0.454441,-0.135718,0.095154,-0.000581,-0.025923,1.000000,-0.000214,-0.000352,0.000615,-0.999778,-0.010154,-0.006236,0.017365,1.151053,0.734671,-1.982723,0.999319,-0.034595,-0.012822,0.034849,0.999191,0.020087,0.012117,-0.020520,0.999716
05321,2,0,-52.0000,9.503805,-0.192205,-2.633479,0.176429,0.251534,0.046321,0.034144,-0.058659,0.115604,0.425292,0.450120,-0.130057,0.095047,-0.001863,-0.026307,1.000000,0.000171,-0.000293,0.000578,-0.999770,-0.010800,-0.006464,0.017373,1.224607,0.762037,-1.982912,0.999313,-0.034598,-0.013300,0.034878,0.999163,0.021370,0.012549,-0.021819,0.999683
05322,2,0,-54.0000,9.427776,-0.350356,-2.756759,0.062461,0.412676,0.007252,0.124292,-0.053066,0.115273,0.422073,0.449442,-0.139551,0.094287,-0.003432,-0.027545,1.000000,0.000621,-0.000265,0.000576,-0.999768,-0.011563,-0.006645,0.016938,1.312065,0.783712,-1.932272,0.999338,-0.033715,-0.013678,0.034022,0.999159,0.022896,0.012894,-0.023346,0.999644
05323,2,0,-54.0000,9.405854,-0.443737,-2.803104,0.026883,0.496129,-0.000578,0.215697,-0.042898,0.104479,0.428241,0.449769,-0.132143,0.094067,-0.004358,-0.028016,0.999999,0.001078,-0.000214,0.000522,-0.999771,-0.012395,-0.006786,0.016057,1.407869,0.800328,-1.830424,0.999392,-0.031938,-0.013968,0.032275,0.999177,0.024567,0.013172,-0.025003,0.999601
05324,2,0,-53.0000,9.439536,-0.365322,-2.773444,0.055213,0.396447,0.024489,0.262529,-0.039420,0.105596,0.427771,0.440072,-0.138347,0.094403,-0.003567,-0.027721,0.999999,0.001313,-0.000197,0.000528,-0.999776,-0.013295,-0.006894,0.014945,1.511623,0.812614,-1.702149,0.999458,-0.029701,-0.014182,0.030067,0.999200,0.026377,0.013388,-0.026789,0.999551
05325,2,0,-50.0000,9.399350,-0.101151,-2.603724,0.173169,0.096695,-0.060866,0.307823,-0.050517,0.103058,0.435325,0.444402,-0.132083,0.094001,-0.000923,-0.026015,0.999999,0.001539,-0.000253,0.000515,-0.999781,-0.014251,-0.007067,0.013620,1.621995,0.831893,-1.549178,0.999529,-0.027032,-0.014519,0.027435,0.999223,0.028302,0.013742,-0.028687,0.999494
05326,2,0,-50.0000,9.316608,0.418859,-2.196970,0.475318,-0.483453,-0.255406,0.271766,-0.068711,0.113527,0.431089,0.443489,-0.135974,0.093171,0.004271,-0.021932,0.999999,0.001359,-0.000344,0.000568,-0.999780,-0.015216,-0.007315,0.012458,1.733300,0.859858,-1.414865,0.999583,-0.024689,-0.015007,0.025134,0.999226,0.030244,0.014249,-0.030608,0.999430
05327,2,0,-49.0000,9.239414,0.705243,-1.880349,0.726971,-0.819130,-0.421183,0.179343,-0.108115,0.121451,0.430472,0.443983,-0.129215,0.092400,0.007125,-0.018747,0.999999,0.000897,-0.000541,0.000607,-0.999771,-0.016116,-0.007776,0.011779,1.836368,0.912608,-1.335445,0.999602,-0.023303,-0.015927,0.023804,0.999203,0.032041,0.015168,-0.032407,0.999360
05328,2,0,-50.0000,9.329334,0.597729,-1.731621,0.918351,-0.747990,-0.379269,0.013356,-0.162482,0.123824,0.433901,0.444695,-0.135489,0.093304,0.006036,-0.017240,0.999999,0.000067,-0.000812,0.000619,-0.999752,-0.016827,-0.008508,0.011890,1.916768,0.997731,-1.346081,0.999572,-0.023488,-0.017413,0.024061,0.999151,0.033443,0.016613,-0.033847,0.999289
05329,2,0,-50.0000,9.576823,0.027458,-1.875226,0.937915,-0.187069,-0.100940,-0.135892,-0.202081,0.108021,0.429137,0.439386,-0.140500,0.095787,0.000314,-0.018656,0.999999,-0.000679,-0.001010,0.000540,-0.999725,-0.017280,-0.009473,0.012713,1.966525,1.110453,-1.438058,0.999497,-0.025091,-0.019380,0.025746,0.999080,0.034309,0.018501,-0.034791,0.999223
05330,2,0,-51.0000,9.749228,-0.372099,-2.216660,0.732459,0.233916,0.162694,-0.247817,-0.220992,0.095420,0.430860,0.440750,-0.129323,0.097518,-0.003702,-0.022054,0.999999,-0.001239,-0.001105,0.000477,-0.999692,-0.017528,-0.010537,0.014044,1.991793,1.235339,-1.588224,0.999383,-0.027710,-0.021559,0.028448,0.998991,0.034748,0.020574,-0.035340,0.999164
05331,2,0,-52.0000,9.808084,-0.872522,-2.663429,0.411540,0.776363,0.350064,-0.240907,-0.209691,0.063425,0.433052,0.450389,-0.127904,0.098111,-0.008726,-0.026521,0.999999,-0.001205,-0.001048,0.000317,-0.999660,-0.017627,-0.011574,0.015310,1.999847,1.356892,-1.731132,0.999263,-0.030201,-0.023680,0.031017,0.998910,0.034887,0.022601,-0.035596,0.999111
05332,2,0,-52.0000,9.793834,-1.081794,-3.042954,0.096737,1.028439,0.448012,-0.155308,-0.193396,0.034784,0.424241,0.443395,-0.128497,0.097970,-0.010824,-0.030326,0.999999,-0.000777,-0.000967,0.000174,-0.999635,-0.017697,-0.012526,0.016101,2.005158,1.467691,-1.819894,0.999168,-0.031747,-0.025613,0.032634,0.998855,0.034978,0.024473,-0.035785,0.999060
05333,2,0,-51.0000,9.690757,-0.811916,-3.300862,-0.193971,0.795113,0.424296,-0.024811,-0.156992,0.007677,0.444045,0.445978,-0.132479,0.096934,-0.008120,-0.032932,1.000000,-0.000124,-0.000785,0.000038,-0.999621,-0.017802,-0.013310,0.016249,2.015581,1.558031,-1.835127,0.999118,-0.032012,-0.027189,0.032960,0.998838,0.035158,0.026032,-0.036023,0.999012
05334,2,0,-50.0000,9.453134,-0.534997,-3.444260,-0.421623,0.545244,0.238971,0.097035,-0.129133,-0.008716,0.433362,0.454886,-0.123937,0.094553,-0.005337,-0.034384,1.000000,0.000485,-0.000646,-0.000044,-0.999617,-0.017983,-0.013941,0.015759,2.035937,1.629584,-1.777446,0.999115,-0.031005,-0.028438,0.032008,0.998857,0.035512,0.027304,-0.036391,0.998965
05335,2,0,-50.0000,9.463882,-0.265885,-3.518181,-0.513620,0.280804,0.270501,0.196156,-0.087242,-0.001397,0.437787,0.450541,-0.132007,0.094654,-0.002625,-0.035143,0.999999,0.000981,-0.000436,-0.000007,-0.999619,-0.018314,-0.014360,0.014830,2.074823,1.676278,-1.669575,0.999148,-0.029123,-0.029252,0.030175,0.998889,0.036189,0.028166,-0.037041,0.998917
05336,2,0,-49.0000,9.515339,0.157084,-3.392052,-0.427316,-0.165839,0.279996,0.256974,-0.055926,0.018391,0.433204,0.442007,-0.128707,0.095163,0.001623,-0.033892,0.999999,0.001285,-0.000280,0.000092,-0.999624,-0.018807,-0.014595,0.013614,2.132960,1.701380,-1.528891,0.999203,-0.026669,-0.029690,0.027767,0.998922,0.037202,0.028666,-0.037997,0.998867
05337,2,0,-49.0000,9.490930,0.359840,-3.259657,-0.331096,-0.394543,0.215637,0.270979,-0.030263,0.054089,0.434436,0.444946,-0.124488,0.094913,0.003668,-0.032577,0.999999,0.001355,-0.000151,0.000270,-0.999625,-0.019476,-0.014692,0.012402,2.211626,1.710861,-1.388547,0.999261,-0.024222,-0.029856,0.025366,0.998934,0.038573,0.028890,-0.039302,0.998810
05338,2,0,-49.0000,9.423816,0.659040,-3.264987,-0.391395,-0.704253,0.149922,0.261311,-0.017376,0.097510,0.435429,0.445541,-0.134900,0.094238,0.006679,-0.032633,0.999999,0.001307,-0.000087,0.000488,-0.999622,-0.020330,-0.014691,0.011281,2.311448,1.709340,-1.258686,0.999314,-0.021957,-0.029829,0.023151,0.998919,0.040313,0.028912,-0.040976,0.998742
05339,2,0,-49.0000,9.365567,0.818348,-3.069489,-0.242560,-0.901182,0.032834,0.234821,0.001298,0.140155,0.443793,0.445886,-0.127848,0.093650,0.008285,-0.030686,0.999999,0.001174,0.000006,0.000701,-0.999612,-0.021341,-0.014588,0.010362,2.429037,1.696650,-1.151844,0.999360,-0.020093,-0.029608,0.021339,0.998874,0.042363,0.028723,-0.042968,0.998663
05340,2,0,-49.0000,9.357653,0.627536,-3.119520,-0.271638,-0.727945,0.040593,0.208085,0.010038,0.182541,0.441775,0.440057,-0.132862,0.093569,0.006393,-0.031193,0.999999,0.001040,0.000050,0.000913,-0.999597,-0.022510,-0.014411,0.009613,2.564541,1.675785,-1.064505,0.999400,-0.018570,-0.029244,0.019868,0.998802,0.044726,0.028378,-0.045280,0.998571
05341,2,0,-49.0000,9.429809,0.500250,-3.119758,-0.239276,-0.629701,0.109540,0.163954,0.021879,0.219862,0.442347,0.440585,-0.138342,0.094289,0.005132,-0.031204,0.999999,0.000820,0.000109,0.001099,-0.999575,-0.023790,-0.014173,0.009146,2.712287,1.648539,-1.009407,0.999431,-0.017609,-0.028768,0.018958,0.998701,0.047301,0.027898,-0.047820,0.998466
05342,2,0,-50.0000,9.494914,0.307849,-3.168737,-0.250090,-0.463460,0.187895,0.137487,0.040193,0.251062,0.439827,0.442896,-0.143723,0.094939,0.003219,-0.031704,0.999999,0.000687,0.000201,0.001255,-0.999549,-0.025171,-0.013818,0.008830,2.871397,1.608401,-0.972002,0.999462,-0.016957,-0.028068,0.018348,0.998577,0.050075,0.027179,-0.050563,0.998351
05343,2,0,-50.0000,9.505545,-0.017254,-3.093412,-0.146279,-0.178082,0.180895,0.138562,0.068464,0.279624,0.440734,0.450450,-0.142455,0.095045,-0.000018,-0.030967,0.999999,0.000693,0.000342,0.001398,-0.999519,-0.026675,-0.013320,0.008568,3.044682,1.551976,-0.940990,0.999498,-0.016417,-0.027084,0.017838,0.998430,0.053095,0.026170,-0.053552,0.998222
05344,2,0,-50.0000,9.451013,-0.226415,-3.270601,-0.317697,0.019610,0.185729,0.171799,0.083907,0.298666,0.439906,0.435468,-0.136903,0.094500,-0.002095,-0.032748,0.999998,0.000859,0.000420,0.001493,-0.999485,-0.028307,-0.012718,0.008166,3.232961,1.483225,-0.894366,0.999543,-0.015604,-0.025884,0.017044,0.998264,0.056377,0.024960,-0.056792,0.998074
05345,2,0,-50.0000,9.403023,-0.146076,-3.386747,-0.464199,-0.080090,0.171611,0.206343,0.094068,0.324394,0.436240,0.437587,-0.144500,0.094016,-0.001273,-0.033913,0.999998,0.001032,0.000470,0.001622,-0.999445,-0.030105,-0.012059,0.007641,3.440447,1.407594,-0.833784,0.999592,-0.014547,-0.024565,0.016000,0.998071,0.059993,0.023645,-0.060362,0.997896
05346,2,0,-50.0000,9.296439,0.156719,-3.360458,-0.519160,-0.413922,0.051390,0.215537,0.107694,0.343121,0.444712,0.438895,-0.146600,0.092943,0.001763,-0.033653,0.999998,0.001078,0.000538,0.001716,-0.999399,-0.031997,-0.011310,0.007091,3.658700,1.321357,-0.770872,0.999644,-0.013450,-0.023060,0.014898,0.997852,0.063796,0.022152,-0.064117,0.997697
05347,2,0,-50.0000,9.263301,0.151942,-3.008416,-0.209188,-0.479932,-0.086015,0.206106,0.127487,0.366730,0.435069,0.433701,-0.147215,0.092611,0.001720,-0.030141,0.999998,0.001031,0.000637,0.001834,-0.999346,-0.033980,-0.010464,0.006627,3.887140,1.224174,-0.718341,0.999693,-0.012534,-0.021364,0.013956,0.997603,0.067776,0.020464,-0.068053,0.997472
05348,2,0,-50.0000,9.414617,-0.188491,-3.000825,-0.138054,-0.193447,0.067537,0.223352,0.137892,0.392620,0.443896,0.435637,-0.151948,0.094129,-0.001667,-0.030075,0.999997,0.001117,0.000689,0.001963,-0.999284,-0.036102,-0.009538,0.006109,4.131752,1.117558,-0.660231,0.999743,-0.011521,-0.019504,0.012898,0.997319,0.072036,0.018622,-0.072270,0.997211
05349,2,0,-50.0000,9.455517,-0.339593,-2.918695,-0.050628,-0.097601,0.088253,0.252249,0.148209,0.414103,0.438555,0.424239,-0.148437,0.094540,-0.003163,-0.029261,0.999997,0.001261,0.000741,0.002071,-0.999212,-0.038363,-0.008557,0.005490,4.392221,1.003992,-0.591095,0.999793,-0.010315,-0.017522,0.011628,0.996996,0.076572,0.016680,-0.076760,0.996910
05350,2,0,-50.0000,9.417290,-0.195420,-2.793567,0.021725,-0.295130,0.007688,0.271882,0.147087,0.434561,0.428788,0.426934,-0.157126,0.094156,-0.001712,-0.028007,0.999996,0.001359,0.000735,0.002173,-0.999129,-0.040748,-0.007557,0.004794,4.666854,0.887583,-0.513707,0.999840,-0.008965,-0.015491,0.010196,0.996633,0.081352,0.014709,-0.081497,0.996565
05351,2,0,-50.0000,9.365953,-0.191831,-2.669194,0.105877,-0.353041,-0.078911,0.262068,0.143098,0.453900,0.447205,0.428018,-0.158188,0.093644,-0.001671,-0.026761,0.999996,0.001310,0.000715,0.002269,-0.999035,-0.043214,-0.006580,0.004183,4.950669,0.773992,-0.446344,0.999878,-0.007789,-0.013508,0.008927,0.996230,0.086290,0.012785,-0.086400,0.996178
05352,2,0,-50.0000,9.420233,-0.178696,-2.541582,0.222031,-0.430657,-0.066028,0.258763,0.138088,0.475461,0.438741,0.425237,-0.173828,0.094189,-0.001530,-0.025483,0.999996,0.001294,0.000690,0.002377,-0.998929,-0.045780,-0.005606,0.003614,5.245790,0.660721,-0.384311,0.999911,-0.006707,-0.011531,0.007734,0.995782,0.091422,0.010870,-0.091503,0.995745
05353,2,0,-50.0000,9.482608,-0.309584,-2.438494,0.333086,-0.365964,-0.029190,0.248499,0.128154,0.498169,0.433888,0.421928,-0.168932,0.094818,-0.002829,-0.024449,0.999996,0.001242,0.000641,0.002491,-0.998810,-0.048447,-0.004686,0.003128,5.552259,0.553689,-0.331985,0.999937,-0.005794,-0.009664,0.006702,0.995286,0.096749,0.009057,-0.096808,0.995262
05354,2,0,-50.0000,9.615058,-0.524086,-2.400709,0.409553,-0.221871,0.100444,0.236190,0.129353,0.518437,0.434342,0.423871,-0.168045,0.096148,-0.004963,-0.024075,0.999996,0.001181,0.000647,0.002592,-0.998678,-0.051192,-0.003740,0.002730,5.867704,0.443991,-0.290544,0.999957,-0.005071,-0.007749,0.005837,0.994744,0.102229,0.007190,-0.102270,0.994731
05355,2,0,-50.0000,9.690982,-0.592421,-2.288969,0.525434,-0.225507,0.146140,0.226453,0.129039,0.533628,0.438183,0.421033,-0.176967,0.096910,-0.005640,-0.022959,0.999996,0.001132,0.000645,0.002668,-0.998534,-0.053997,-0.002804,0.002399,6.189886,0.335659,-0.257140,0.999973,-0.004488,-0.005858,0.005093,0.994157,0.107822,0.005340,-0.107849,0.994153
05356,2,0,-50.0000,9.672803,-0.790175,-2.273148,0.536913,-0.086120,0.140136,0.237080,0.124902,0.567373,0.431116,0.414743,-0.172469,0.096736,-0.007600,-0.022801,0.999995,0.001185,0.000625,0.002837,-0.998372,-0.056978,-0.001858,0.002062,6.532296,0.225999,-0.223754,0.999985,-0.003905,-0.003944,0.004329,0.993499,0.113762,0.003475,-0.113778,0.993500
05357,2,0,-51.0000,9.603716,-0.764195,-2.408379,0.366780,-0.154660,0.109855,0.269346,0.126951,0.592482,0.433612,0.417063,-0.177217,0.096044,-0.007325,-0.024155,0.999995,0.001347,0.000635,0.002962,-0.998189,-0.060121,-0.000894,0.001604,6.893404,0.113303,-0.177345,0.999993,-0.003095,-0.001978,0.003310,0.992766,0.120022,0.001592,-0.120028,0.992769
05358,2,0,-51.0000,9.441355,-0.611584,-2.509827,0.190702,-0.342742,-0.032184,0.289515,0.122807,0.617743,0.433562,0.411963,-0.175429,0.094416,-0.005788,-0.025165,0.999994,0.001448,0.000614,0.003089,-0.997987,-0.063413,0.000079,0.001085,7.271472,-0.001111,-0.124652,0.999998,-0.002176,0.000019,0.002156,0.991955,0.126571,-0.000295,-0.126570,0.991958
05359,2,0,-52.0000,9.398376,-0.574110,-2.698990,-0.024818,-0.427315,-0.026984,0.319188,0.115351,0.642333,0.435495,0.416855,-0.186862,0.093986,-0.005396,-0.027053,0.999993,0.001596,0.000577,0.003212,-0.997761,-0.066866,0.001022,0.000454,7.668054,-0.113329,-0.059698,0.999998,-0.001042,0.001978,0.000769,0.991057,0.133433,-0.002099,-0.133432,0.991056
05360,2,0,-53.0000,9.441497,-0.357037,-2.620692,0.020894,-0.721917,-0.034378,0.304991,0.119734,0.675788,0.431213,0.401178,-0.183392,0.094411,-0.003211,-0.026269,0.999993,0.001525,0.000599,0.003379,-0.997513,-0.070455,0.002008,-0.000065,8.080297,-0.230036,-0.008821,0.999992,-0.000154,0.004015,-0.000412,0.990072,0.140560,-0.003997,-0.140560,0.990064
05361,2,0,-53.0000,9.359836,-0.419226,-2.665562,-0.056587,-0.718472,-0.098388,0.267913,0.118291,0.725378,0.430919,0.405080,-0.194206,0.093597,-0.003817,-0.026716,0.999992,0.001340,0.000591,0.003627,-0.997236,-0.074234,0.002983,-0.000336,8.514406,-0.343770,0.013059,0.999982,0.000228,0.006000,-0.001114,0.988978,0.148055,-0.005900,-0.148059,0.988961
05362,2,0,-53.0000,9.486139,-0.456644,-2.513842,0.106297,-0.784392,-0.020463,0.222308,0.122648,0.772021,0.430043,0.395652,-0.201058,0.094863,-0.004172,-0.025201,0.999992,0.001112,0.000613,0.003860,-0.996932,-0.078171,0.003995,-0.000327,8.966916,-0.459345,0.001532,0.999968,0.000027,0.008017,-0.001276,0.987778,0.155859,-0.007915,-0.155864,0.987747
05363,2,0,-53.0000,9.418294,-0.664633,-2.662007,-0.052743,-0.639249,-0.023904,0.198737,0.117771,0.816845,0.437259,0.397746,-0.196981,0.094193,-0.006235,-0.026682,0.999991,0.000994,0.000589,0.004084,-0.996596,-0.082293,0.004980,-0.000143,9.441072,-0.570091,-0.030684,0.999950,-0.000536,0.009950,-0.001104,0.986456,0.164025,-0.009903,-0.164028,0.986406
05364,2,0,-53.0000,9.512002,-1.013309,-2.669428,-0.021558,-0.393017,0.110783,0.191099,0.126857,0.852394,0.439761,0.397906,-0.199956,0.095145,-0.009702,-0.026764,0.999990,0.000955,0.000634,0.004262,-0.996228,-0.086569,0.006033,0.000121,9.933119,-0.687559,-0.073678,0.999927,-0.001286,0.012000,-0.000803,0.985012,0.172486,-0.012042,-0.172483,0.984939
05365,2,0,-53.0000,9.567927,-0.946180,-2.580717,0.049948,-0.560750,0.126273,0.207795,0.142344,0.891995,0.429942,0.389723,-0.202803,0.095702,-0.009008,-0.025885,0.999989,0.001039,0.000712,0.004460,-0.995821,-0.091047,0.007174,0.000370,10.448817,-0.814795,-0.117041,0.999897,-0.002043,0.014220,-0.000570,0.983421,0.181339,-0.014355,-0.181328,0.983318
05366,2,0,-53.0000,9.600251,-1.053570,-2.744506,-0.112292,-0.543817,0.212182,0.213721,0.149852,0.936679,0.433507,0.388275,-0.206834,0.096030,-0.010057,-0.027528,0.999988,0.001069,0.000749,0.004683,-0.995371,-0.095739,0.008382,0.000643,10.989467,-0.949102,-0.165318,0.999859,-0.002885,0.016564,-0.000325,0.981667,0.190602,-0.016810,-0.190581,0.981528
05367,2,0,-52.0000,9.657334,-1.170583,-2.758395,-0.124744,-0.535705,0.283831,0.231005,0.165936,0.977197,0.426350,0.388341,-0.212448,0.096606,-0.011202,-0.027677,0.999987,0.001155,0.000830,0.004886,-0.994876,-0.100639,0.009684,0.000902,11.554483,-1.093638,-0.214502,0.999811,-0.003743,0.019086,-0.000155,0.979742,0.200263,-0.019449,-0.200228,0.979556
05368,2,0,-52.0000,9.672950,-1.119945,-2.903289,-0.293255,-0.682530,0.321241,0.244782,0.186616,1.018781,0.422780,0.380821,-0.213229,0.096758,-0.010671,-0.029136,0.999986,0.001224,0.000933,0.005094,-0.994331,-0.105739,0.011121,0.001151,12.143217,-1.253296,-0.265977,0.999750,-0.004641,0.021872,-0.000063,0.977636,0.210306,-0.022359,-0.210254,0.977391
05369,2,0,-52.0000,9.856375,-1.776617,-3.111131,-0.413890,-0.175747,0.664922,0.298474,0.203474,1.055452,0.421487,0.379431,-0.223766,0.098624,-0.017199,-0.031238,0.999984,0.001492,0.001017,0.005277,-0.993731,-0.111075,0.012671,0.001204,12.759306,-1.427762,-0.298442,0.999676,-0.005207,0.024917,-0.000423,0.975322,0.220787,-0.025451,-0.220726,0.975004
05370,2,0,-52.0000,9.988924,-2.050989,-2.525055,0.176039,-0.078815,0.690769,0.402015,0.223515,1.085903,0.431118,0.367206,-0.222894,0.099970,-0.019916,-0.025403,0.999983,0.002010,0.001118,0.005429,-0.993066,-0.116671,0.014399,0.000802,13.405478,-1.628062,-0.283859,0.999584,-0.004952,0.028411,-0.001768,0.972774,0.231747,-0.028785,-0.231701,0.972361
05371,2,0,-52.0000,10.002510,-1.703240,-2.456951,0.173276,-0.543233,0.611389,0.468681,0.228968,1.113946,0.420512,0.370412,-0.233884,0.100089,-0.016417,-0.024723,0.999981,0.002343,0.001145,0.005570,-0.992339,-0.122481,0.016189,0.000124,14.076304,-1.839506,-0.241487,0.999476,-0.004213,0.032100,-0.003719,0.969997,0.243089,-0.032161,-0.243080,0.969473
05372,2,0,-52.0000,10.162938,-2.155472,-2.719264,-0.039265,-0.256405,0.923093,0.517305,0.234801,1.127696,0.424634,0.356303,-0.241110,0.101716,-0.020911,-0.027367,0.999980,0.002587,0.001174,0.005638,-0.991557,-0.128407,0.018052,-0.000772,14.760690,-2.062996,-0.178055,0.999347,-0.003106,0.035998,-0.006167,0.967022,0.254617,-0.035602,-0.254673,0.966372
05373,2,0,-53.0000,10.046942,-2.417603,-2.384309,0.239416,-0.114829,0.789138,0.592318,0.244609,1.155348,0.424630,0.354235,-0.244910,0.100577,-0.023524,-0.024036,0.999978,0.002962,0.001223,0.005777,-0.990703,-0.134550,0.020008,-0.001981,15.470012,-2.302569,-0.083646,0.999192,-0.001459,0.040177,-0.009309,0.963785,0.266519,-0.039110,-0.266677,0.962992
05374,2,0,-53.0000,10.036195,-2.478173,-2.357375,0.222923,-0.186386,0.786259,0.649829,0.250238,1.173283,0.421557,0.337889,-0.252418,0.100475,-0.024115,-0.023778,0.999977,0.003249,0.001251,0.005866,-0.989781,-0.140838,0.022044,-0.003446,16.195998,-2.556717,0.035148,0.999004,0.000613,0.044608,-0.013031,0.960305,0.278646,-0.042667,-0.278950,0.959357
05375,2,0,-53.0000,10.322656,-2.635096,-2.350866,0.260473,-0.249376,1.091242,0.668852,0.250796,1.197460,0.424238,0.340259,-0.254683,0.103352,-0.025653,-0.023725,0.999976,0.003344,0.001254,0.005987,-0.988792,-0.147261,0.024091,-0.004965,16.937754,-2.814602,0.156243,0.998790,0.002724,0.049104,-0.016914,0.956579,0.290981,-0.046180,-0.291460,0.955468
05376,2,0,-52.0000,11.655439,-4.837225,-1.288651,1.715995,1.314823,2.686605,0.715980,0.274622,1.327218,0.418524,0.339028,-0.266525,0.116854,-0.047551,-0.013218,0.999971,0.003580,0.001373,0.006636,-0.987645,-0.154338,0.026336,-0.006536,17.755971,-3.097697,0.274340,0.998527,0.004781,0.054039,-0.021040,0.952274,0.304518,-0.050004,-0.305206,0.950972
05377,2,0,-52.0000,10.625447,1.423361,-0.931544,1.287467,-4.523578,-0.134267,0.677305,0.362653,1.243652,0.417362,0.332722,-0.259107,0.106146,0.014926,-0.009458,0.999973,0.003386,0.001813,0.006218,-0.986510,-0.160923,0.028952,-0.007964,18.518447,-3.421774,0.367061,0.998197,0.006395,0.059686,-0.025031,0.948081,0.317044,-0.054559,-0.317966,0.946531
05378,2,0,-52.0000,10.578801,-2.660663,-2.295849,0.211961,-0.749148,1.307243,0.554214,0.259407,1.297738,0.422676,0.318429,-0.277561,0.105927,-0.025856,-0.023168,0.999974,0.002771,0.001297,0.006489,-0.985319,-0.167657,0.030988,-0.008811,19.300510,-3.670605,0.400316,0.997924,0.006972,0.064020,-0.027754,0.943627,0.329845,-0.058111,-0.330937,0.941862
05379,2,0,-51.0000,12.436904,-2.701588,-1.846364,0.994166,-1.462981,2.925160,0.555375,0.295836,1.309256,0.422088,0.316746,-0.287279,0.124515,-0.026149,-0.018721,0.999974,0.002777,0.001479,0.006546,-0.984064,-0.174424,0.033194,-0.009616,20.087945,-3.938448,0.421839,0.997611,0.007345,0.068685,-0.030505,0.938967,0.342651,-0.061976,-0.343928,0.936949
05380,2,0,-51.0000,12.203817,-2.063041,-2.418578,0.284949,-2.164656,2.607820,0.611954,0.321758,1.337686,0.418152,0.306362,-0.286439,0.122133,-0.019739,-0.024444,0.999972,0.003060,0.001609,0.006688,-0.982713,-0.181369,0.035591,-0.010643,20.896562,-4.232959,0.460126,0.997240,0.008009,0.073812,-0.033829,0.933984,0.355709,-0.066090,-0.357224,0.931677
05381,2,0,-51.0000,12.079499,-2.800086,-2.208941,0.451713,-1.604188,2.671452,0.689812,0.349882,1.339288,0.417281,0.292487,-0.294306,0.120940,-0.027114,-0.022395,0.999970,0.003449,0.001749,0.006696,-0.981278,-0.188390,0.038180,-0.012011,21.714261,-4.557254,0.528097,0.996796,0.009188,0.079455,-0.037958,0.928730,0.368808,-0.070404,-0.370643,0.926103
05382,2,0,-51.0000,12.299173,-2.845234,-2.014156,0.621267,-1.816896,2.825808,0.753497,0.359786,1.351347,0.412074,0.284623,-0.304515,0.123143,-0.027544,-0.020468,0.999968,0.003767,0.001799,0.006757,-0.979752,-0.195521,0.040885,-0.013668,22.544954,-4.902420,0.620817,0.996283,0.010795,0.085459,-0.042771,0.923170,0.382006,-0.074769,-0.384241,0.920200
05383,2,0,-51.0000,12.383486,-2.084071,-1.798195,0.732849,-2.734440,2.552990,0.846215,0.427245,1.389612,0.422320,0.277298,-0.310655,0.123936,-0.019903,-0.018332,0.999965,0.004231,0.002136,0.006948,-0.978085,-0.202899,0.044000,-0.015655,23.404964,-5.303053,0.734743,0.995638,0.012768,0.092424,-0.048478,0.917174,0.395527,-0.079718,-0.398282,0.913792
05384,2,0,-51.0000,12.976880,-1.466360,-1.166885,1.354714,-3.702542,2.691851,0.850960,0.469757,1.440348,0.423215,0.265190,-0.319266,0.129842,-0.013678,-0.012033,0.999962,0.004255,0.002349,0.007202,-0.976292,-0.210487,0.047343,-0.017573,24.291831,-5.729910,0.828228,0.994900,0.014383,0.099839,-0.054243,0.910773,0.409329,-0.085044,-0.412657,0.906908
05385,2,0,-57.0000,14.563033,-0.298742,-1.251600,1.423114,-5.603101,3.615370,0.691126,0.566666,1.511973,0.411563,0.253472,-0.314508,0.145611,-0.001842,-0.012936,0.999961,0.003456,0.002833,0.007560,-0.974396,-0.218192,0.050998,-0.018544,25.200388,-6.169828,0.800127,0.994111,0.013884,0.107476,-0.058393,0.904097,0.423319,-0.091291,-0.427102,0.899583
05386,2,0,-50.0000,13.531510,-0.056287,-1.533095,0.855051,-5.621920,2.561205,0.444676,0.670044,1.626715,0.407951,0.250508,-0.328201,0.135261,0.000572,-0.015784,0.999959,0.002223,0.003350,0.008133,-0.972382,-0.226117,0.054925,-0.018115,26.147112,-6.604093,0.599373,0.993310,0.010391,0.115008,-0.060069,0.897086,0.437753,-0.098623,-0.441733,0.891709
05387,2,0,-50.0000,13.032388,-0.845306,-1.514539,0.722949,-4.906790,2.362988,0.424234,0.645936,1.742348,0.394741,0.234211,-0.343789,0.130341,-0.007285,-0.015583,0.999955,0.002121,0.003230,0.008712,-0.970169,-0.234564,0.058710,-0.017470,27.161409,-7.014030,0.366830,0.992496,0.006354,0.122112,-0.061439,0.889349,0.453082,-0.105721,-0.457185,0.883066
05388,2,0,-50.0000,14.397547,-0.141368,-1.593811,0.734418,-6.371756,3.175911,0.463469,0.729149,1.860269,0.402036,0.218051,-0.351643,0.143921,-0.000037,-0.016464,0.999947,0.002317,0.003646,0.009301,-0.967698,-0.243547,0.062960,-0.016799,28.246244,-7.471635,0.106643,0.991508,0.001845,0.130035,-0.063180,0.880806,0.469244,-0.113670,-0.473474,0.873442
05389,2,0,-50.0000,15.504240,1.045465,-2.201044,0.137014,-8.214136,3.559606,0.497431,0.790152,2.017878,0.397005,0.205456,-0.354807,0.154838,0.012073,-0.022594,0.999938,0.002487,0.003951,0.010089,-0.964904,-0.253263,0.067542,-0.016033,29.427050,-7.958999,-0.189276,0.990362,-0.003272,0.138464,-0.065152,0.871202,0.486582,-0.122222,-0.490914,0.862592
05390,2,0,-50.0000,16.598734,1.809814,-3.150795,-0.813694,-9.730305,4.092926,0.525422,0.871273,2.184701,0.386604,0.184586,-0.365854,0.165637,0.019993,-0.032179,0.999927,0.002627,0.004356,0.010923,-0.961748,-0.263717,0.072565,-0.015135,30.707313,-8.485633,-0.530667,0.989010,-0.009160,0.147561,-0.067386,0.860448,0.505062,-0.131595,-0.509456,0.850375
05391,2,0,-50.0000,17.407473,3.188144,-4.765472,-2.514140,-11.703137,4.065022,0.579351,0.950053,2.353425,0.388247,0.173667,-0.373151,0.173454,0.034064,-0.048383,0.999915,0.002897,0.004750,0.011767,-0.958181,-0.274953,0.078026,-0.014200,32.094068,-9.052233,-0.910564,0.987421,-0.015694,0.157335,-0.070120,0.848398,0.524694,-0.141717,-0.529126,0.836626
05392,2,0,-51.0000,16.712851,4.569611,-6.106952,-4.147263,-12.897019,2.594603,0.648978,0.961423,2.535117,0.370086,0.152487,-0.379002,0.166234,0.048007,-0.061717,0.999903,0.003245,0.004807,0.012675,-0.954166,-0.287040,0.083637,-0.013405,33.595312,-9.631034,-1.303794,0.985650,-0.022433,0.167303,-0.073596,0.834857,0.545525,-0.151912,-0.550009,0.821226
05393,2,0,-53.0000,15.953196,5.016088,-6.551903,-4.838610,-13.189951,1.375818,0.873141,0.880763,2.680065,0.376462,0.127659,-0.384067,0.158548,0.052577,-0.065993,0.999891,0.004366,0.004404,0.013400,-0.949671,-0.299988,0.089148,-0.013606,35.205246,-10.223346,-1.609709,0.983735,-0.027645,0.177486,-0.079328,0.819644,0.567354,-0.161160,-0.572206,0.804119
05394,2,0,-55.0000,15.303027,5.551783,-5.935211,-4.423510,-13.540769,0.050773,1.116974,0.868950,2.767468,0.358831,0.113203,-0.393359,0.151981,0.057958,-0.059695,0.999879,0.005585,0.004345,0.013837,-0.944722,-0.313471,0.094938,-0.014898,36.887365,-10.878103,-1.830622,0.981530,-0.031371,0.188720,-0.087670,0.803028,0.589458,-0.170039,-0.595116,0.785445
05395,2,0,-62.0000,15.147020,4.955969,-3.943941,-2.549226,-13.162711,-0.337977,1.284964,0.939549,2.872170,0.355234,0.087972,-0.395654,0.150549,0.051981,-0.039819,0.999865,0.006425,0.004698,0.014360,-0.939263,-0.327484,0.101283,-0.016747,38.650792,-11.608959,-2.040435,0.978923,-0.034876,0.201231,-0.097797,0.784947,0.611796,-0.179293,-0.618581,0.764991
05396,2,0,-68.0000,15.979435,0.271896,-2.429159,-1.083981,-10.212490,2.670153,1.175569,1.126171,3.116010,0.343670,0.057347,-0.399789,0.159585,0.005353,-0.025164,0.999846,0.005878,0.005631,0.015579,-0.933141,-0.342359,0.108304,-0.017589,40.557825,-12.366815,-2.425076,0.975922,-0.041331,0.214170,-0.106984,0.764962,0.635128,-0.190082,-0.642748,0.742121
05397,2,0,-59.0000,16.808984,-0.142290,-2.385426,-1.180220,-10.830968,3.207192,0.984736,1.361621,3.303236,0.338890,0.037986,-0.415945,0.167914,0.001473,-0.024995,0.999828,0.004923,0.006808,0.016515,-0.926410,-0.357775,0.116071,-0.016964,42.582505,-13.132170,-3.038637,0.972479,-0.051623,0.227198,-0.114487,0.743418,0.658956,-0.202920,-0.666832,0.717048
05398,2,0,-57.0000,15.463341,3.921171,-5.604502,-4.636661,-13.524637,-0.787323,0.062836,1.191811,3.390878,0.326286,0.000284,-0.404589,0.153601,0.041840,-0.056950,0.999838,0.000314,0.005959,0.016953,-0.919811,-0.372894,0.121433,-0.012318,44.607825,-13.448902,-4.003494,0.970204,-0.067903,0.232578,-0.113224,0.721596,0.682993,-0.214205,-0.688976,0.692407
05399,2,0,-58.0000,13.488458,6.363280,-7.911125,-7.215880,-14.226189,-4.286093,-1.244672,0.862568,3.248298,0.318234,-0.015536,-0.410967,0.133489,0.065312,-0.080092,0.999839,-0.006223,0.004313,0.016241,-0.914037,-0.386552,0.122915,-0.002343,46.461458,-13.091591,-5.345699,0.969773,-0.090743,0.226508,-0.099308,0.701144,0.706070,-0.222886,-0.707222,0.670939
05400,2,0,-58.0000,10.760946,2.809459,-5.908126,-5.495780,-9.790361,-4.108713,-1.810493,0.702820,3.077612,0.312640,-0.028751,-0.403078,0.106957,0.029205,-0.059719,0.999834,-0.009052,0.003514,0.015387,-0.908669,-0.399000,0.122577,0.009750,48.152773,-12.414500,-6.794127,0.969760,-0.115536,0.214982,-0.080097,0.681407,0.727508,-0.230544,-0.722728,0.651547
05401,2,0,-54.0000,7.744739,-2.753053,-2.231287,-1.878184,-3.862242,-2.458043,-1.384641,0.488901,2.947247,0.309119,-0.052910,-0.401847,0.077789,-0.026540,-0.022317,0.999864,-0.006923,0.002444,0.014736,-0.903155,-0.411140,0.122053,0.019418,49.775767,-11.800143,-7.953003,0.969452,-0.135437,0.204498,-0.065287,0.661173,0.747387,-0.236433,-0.737907,0.632133
05402,2,0,-53.0000,6.677167,-5.035855,-5.283540,-4.839144,-1.713157,-1.356596,-1.366070,-0.093864,2.419278,0.305514,-0.072916,-0.401605,0.067402,-0.049905,-0.052462,0.999903,-0.006830,-0.000469,0.012096,-0.898757,-0.421133,0.118884,0.027375,51.056373,-10.990096,-8.750290,0.970234,-0.149338,0.190639,-0.050926,0.643796,0.763501,-0.236753,-0.750483,0.617028
05403,2,0,-53.0000,7.372294,-2.368366,-5.748778,-5.361177,-4.078898,-2.911379,-1.003751,-0.274494,1.538604,0.306095,-0.089129,-0.382256,0.073982,-0.023403,-0.057268,0.999957,-0.005019,-0.001372,0.007693,-0.895996,-0.427507,0.115607,0.032623,51.847763,-10.327453,-9.200893,0.971141,-0.157306,0.179274,-0.040385,0.632346,0.773632,-0.235060,-0.758546,0.607745
05404,2,0,-53.0000,7.919502,2.245232,-3.826047,-3.695060,-7.500632,-6.279260,-0.485679,-0.079992,0.754512,0.305456,-0.106522,-0.383346,0.079125,0.022658,-0.038284,0.999990,-0.002428,-0.000400,0.003773,-0.894603,-0.430571,0.114246,0.035251,52.232320,-10.023578,-9.436557,0.971411,-0.161453,0.174053,-0.035311,0.626732,0.778435,-0.234765,-0.762326,0.603113
05405,2,0,-53.0000,6.228479,2.909212,-2.414674,-2.397243,-6.634744,-7.990198,0.100558,0.141889,0.264319,0.299541,-0.116463,-0.382463,0.062229,0.029187,-0.024176,0.999999,0.000503,0.000709,0.001322,-0.893932,-0.431727,0.115102,0.035329,52.398007,-10.095048,-9.503306,0.971007,-0.162548,0.175282,-0.036222,0.624727,0.780003,-0.236291,-0.763737,0.600726
05406,2,0,-53.0000,5.073893,-0.099850,-1.264916,-1.097684,-3.869833,-6.469958,0.736802,0.243782,-0.155761,0.295734,-0.129736,-0.379124,0.050723,-0.000991,-0.012715,0.999992,0.003684,0.001219,-0.000779,-0.893888,-0.431340,0.117738,0.032388,52.379757,-10.518268,-9.334453,0.970178,-0.159472,0.182549,-0.043668,0.625794,0.778765,-0.238429,-0.763512,0.600168
05407,2,0,-53.0000,3.816070,-0.326653,-1.188642,-1.058764,-2.742377,-7.084993,1.107684,0.254659,-0.693808,0.287127,-0.145966,-0.384588,0.038134,-0.003333,-0.011953,0.999978,0.005538,0.001273,-0.003469,-0.894808,-0.428813,0.121191,0.027388,52.086944,-11.151120,-8.968667,0.969125,-0.152951,0.193397,-0.054923,0.630739,0.774049,-0.240375,-0.760772,0.602864
05408,2,0,-54.0000,2.809084,1.011493,-0.895623,-0.859405,-2.803731,-8.755961,1.292225,0.150715,-1.208647,0.282923,-0.162514,-0.376832,0.028145,0.010003,-0.008913,0.999961,0.006461,0.000754,-0.006043,-0.896757,-0.424124,0.124540,0.020886,51.499331,-11.867428,-8.408272,0.968107,-0.143100,0.205648,-0.068181,0.639366,0.765874,-0.241081,-0.755469,0.609218
05409,2,0,-54.0000,2.146460,1.907617,-0.590687,-0.585275,-2.872495,-9.847591,1.313432,0.011492,-1.725820,0.266442,-0.169577,-0.372000,0.021628,0.018928,-0.005783,0.999941,0.006567,0.000057,-0.008629,-0.899747,-0.417210,0.127303,0.013613,50.603309,-12.575228,-7.696936,0.967217,-0.130720,0.217721,-0.081727,0.651502,0.754232,-0.240439,-0.747300,0.619460
05410,2,0,-55.0000,1.962702,2.120859,-0.563752,-0.540109,-2.881790,-10.079664,1.180838,-0.088314,-2.188994,0.278981,-0.178459,-0.372950,0.019860,0.021025,-0.005504,0.999923,0.005904,-0.000442,-0.010945,-0.903702,-0.408112,0.129332,0.006329,49.408404,-13.214018,-6.902835,0.966466,-0.117004,0.228589,-0.094124,0.666809,0.739261,-0.238922,-0.735987,0.633435
05411,2,0,-54.0000,1.832912,2.410722,-0.495130,-0.449752,-2.993173,-10.317053,0.934034,-0.150190,-2.630957,0.268651,-0.180956,-0.376162,0.018648,0.023886,-0.004825,0.999902,0.004670,-0.000751,-0.013154,-0.908536,-0.396870,0.130600,-0.000277,47.928904,-13.740756,-6.096212,0.965887,-0.103159,0.237529,-0.104166,0.684988,0.721069,-0.237089,-0.721214,0.650876
05412,2,0,-54.0000,2.019016,2.776572,-0.499327,-0.421937,-3.398740,-10.364697,0.617466,-0.223818,-3.036308,0.266330,-0.186584,-0.375010,0.020614,0.027470,-0.004885,0.999879,0.003087,-0.001119,-0.015181,-0.914185,-0.383525,0.130915,-0.005937,46.175258,-14.117704,-5.298962,0.965652,-0.089563,0.243915,-0.111273,0.705747,0.699671,-0.234807,-0.702780,0.671540
05413,2,0,-54.0000,2.467782,2.825726,-0.451429,-0.337111,-3.760276,-9.966890,0.326646,-0.345812,-3.366753,0.254833,-0.193142,-0.387273,0.025157,0.027844,-0.004425,0.999855,0.001633,-0.001729,-0.016833,-0.920419,-0.368483,0.130130,-0.010714,44.203669,-14.326333,-4.509404,0.965903,-0.076178,0.247444,-0.115625,0.728211,0.675529,-0.231652,-0.681106,0.694573
05414,2,0,-54.0000,3.162459,2.829477,-0.336162,-0.178277,-4.224088,-9.319413,0.010880,-0.469191,-3.671260,0.267538,-0.192386,-0.394096,0.032145,0.027708,-0.003285,0.999829,0.000054,-0.002346,-0.018355,-0.927159,-0.351757,0.128190,-0.014528,42.024243,-14.354762,-3.743020,0.966713,-0.063243,0.247925,-0.117123,0.752112,0.648544,-0.227484,-0.655994,0.719669
05415,2,0,-51.0000,3.940248,2.846532,-0.051979,0.152535,-4.697989,-8.574339,-0.387937,-0.575660,-3.968507,0.267130,-0.178443,-0.397277,0.039958,0.027675,-0.000460,0.999797,-0.001940,-0.002878,-0.019841,-0.934318,-0.333352,0.125063,-0.016869,39.652820,-14.178530,-3.066090,0.968149,-0.051858,0.244944,-0.114902,0.777184,0.618695,-0.222451,-0.627133,0.746471
05416,2,0,-50.0000,4.729593,2.570027,0.033162,0.283756,-4.893260,-7.588654,-0.802152,-0.653936,-4.245785,0.262758,-0.176635,-0.400877,0.047826,0.024690,0.000387,0.999761,-0.004010,-0.003269,-0.021227,-0.941786,-0.313239,0.120863,-0.017656,37.097937,-13.810739,-2.506156,0.970161,-0.042463,0.238715,-0.108974,0.803139,0.585741,-0.216594,-0.594277,0.774547
05417,2,0,-50.0000,5.694691,2.385900,-0.041034,0.273838,-5.186897,-6.475280,-1.197065,-0.735983,-4.520301,0.269744,-0.166928,-0.415233,0.057468,0.022562,-0.000337,0.999720,-0.005985,-0.003680,-0.022599,-0.949412,-0.291477,0.115638,-0.016893,34.375689,-13.263170,-2.080508,0.972685,-0.035335,0.229424,-0.099488,0.829512,0.549557,-0.209729,-0.557370,0.803338
05418,2,0,-50.0000,7.134382,1.633177,-0.321909,0.108988,-5.149378,-4.603877,-1.541419,-0.790248,-4.786383,0.278528,-0.160520,-0.418180,0.071719,0.014594,-0.003053,0.999676,-0.007706,-0.003951,-0.023929,-0.957043,-0.268025,0.109598,-0.014832,31.486828,-12.575819,-1.782517,0.975536,-0.030360,0.217731,-0.087141,0.855885,0.509772,-0.201829,-0.516274,0.832301
05419,2,0,-49.0000,8.642936,0.501036,-0.741380,-0.133625,-4.629171,-2.461712,-1.714001,-0.844191,-5.030691,0.290127,-0.140487,-0.441927,0.086548,0.002773,-0.007079,0.999638,-0.008569,-0.004220,-0.025150,-0.964425,-0.243160,0.102996,-0.012188,28.462963,-11.805533,-1.556061,0.978487,-0.026581,0.204591,-0.073597,0.881449,0.466510,-0.192736,-0.471531,0.860530
05420,2,0,-50.0000,10.217823,-0.488029,-1.197410,-0.342696,-4.039622,-0.346263,-1.752624,-0.880356,-5.247256,0.295874,-0.127631,-0.444537,0.102053,-0.007661,-0.011466,0.999608,-0.008762,-0.004401,-0.026233,-0.971379,-0.217027,0.096068,-0.009627,25.317825,-11.000360,-1.342382,0.981357,-0.022996,0.190815,-0.060401,0.905613,0.419782,-0.182458,-0.423481,0.887340
05421,2,0,-52.0000,11.571112,-1.506099,-1.808677,-0.655305,-3.101135,1.560332,-1.736043,-0.886548,-5.450113,0.297507,-0.104468,-0.453099,0.115319,-0.018361,-0.017425,0.999581,-0.008679,-0.004432,-0.027247,-0.977751,-0.189802,0.089021,-0.007296,22.072655,-10.186348,-1.136663,0.984044,-0.019525,0.176850,-0.048061,0.927844,0.369859,-0.171311,-0.372457,0.912101
05422,2,0,-55.0000,12.621017,-2.014861,-2.209019,-0.758156,-2.321444,2.923763,-1.539927,-0.867304,-5.620734,0.311357,-0.078632,-0.471896,0.125668,-0.023852,-0.021370,0.999566,-0.007699,-0.004336,-0.028100,-0.983394,-0.161718,0.082131,-0.006095,18.746924,-9.410440,-0.846545,0.986435,-0.014576,0.163506,-0.038553,0.947620,0.317064,-0.159563,-0.319066,0.934204
05423,2,0,-56.0000,13.680355,-2.171544,-2.297114,-0.538656,-1.734835,4.108057,-1.281246,-0.857300,-5.716165,0.320600,-0.054756,-0.471677,0.136202,-0.025758,-0.022230,0.999562,-0.006405,-0.004286,-0.028577,-0.988183,-0.133306,0.075396,-0.006192,15.400180,-8.665263,-0.455788,0.988554,-0.007864,0.150661,-0.032339,0.964382,0.262528,-0.147360,-0.264395,0.953090
05424,2,0,-56.0000,14.898517,-2.336260,-2.432141,-0.320702,-1.043195,5.421505,-0.991578,-0.842455,-5.747729,0.329697,-0.041481,-0.482566,0.148330,-0.027750,-0.023565,0.999566,-0.004957,-0.004212,-0.028734,-0.992072,-0.104854,0.068843,-0.007754,12.062808,-7.944878,0.054821,0.990401,0.000948,0.138220,-0.029821,0.977891,0.206978,-0.134968,-0.209113,0.968533
05425,2,0,-52.0000,15.848733,-2.364646,-2.663372,-0.220863,-0.296509,6.424806,-0.726524,-0.847777,-5.725982,0.335349,-0.015537,-0.491484,0.157833,-0.028267,-0.025867,0.999575,-0.003632,-0.004238,-0.028626,-0.995045,-0.076726,0.062344,-0.010540,8.776855,-7.220442,0.658957,0.992004,0.011410,0.125687,-0.030543,0.988004,0.151377,-0.122452,-0.154005,0.980453
05426,2,0,-49.0000,16.697690,-2.294490,-2.737834,0.029896,0.457479,7.254321,-0.568576,-0.872773,-5.674872,0.349894,0.001733,-0.498058,0.166352,-0.027748,-0.026577,0.999584,-0.002842,-0.004363,-0.028370,-0.997147,-0.048912,0.055744,-0.014079,5.542747,-6.462160,1.304702,0.993389,0.022625,0.112547,-0.033531,0.994819,0.095975,-0.109792,-0.099114,0.989001
05427,2,0,-50.0000,16.757025,-2.213906,-2.958428,0.024734,1.334040,7.292673,-0.533847,-0.910095,-5.563821,0.365690,0.045221,-0.492818,0.166999,-0.026868,-0.028756,0.999599,-0.002669,-0.004550,-0.027815,-0.998410,-0.021693,0.048962,-0.017622,2.395388,-5.654696,1.903969,0.994584,0.033063,0.098533,-0.037311,0.998438,0.041592,-0.097004,-0.045043,0.994264
05428,2,0,-50.0000,16.571707,-2.253332,-3.148288,0.021708,2.315030,7.044877,-0.627565,-1.003338,-5.411881,0.385583,0.057451,-0.493784,0.165180,-0.027105,-0.030573,0.999616,-0.003137,-0.005016,-0.027056,-0.998905,0.004912,0.041734,-0.020562,-0.662935,-4.771053,2.386106,0.995671,0.041489,0.083174,-0.040669,0.999106,-0.011530,-0.083578,0.008098,0.996468
05429,2,0,-49.0000,16.440632,-2.483511,-3.302415,0.089736,3.437532,6.784701,-0.912151,-1.139825,-5.221824,0.395486,0.081452,-0.486653,0.163865,-0.029266,-0.031962,0.999633,-0.004560,-0.005698,-0.026106,-0.998712,0.030818,0.033887,-0.021831,-3.622073,-3.803911,2.624787,0.996750,0.045694,0.066342,-0.041517,0.997147,-0.063036,-0.069033,0.060077,0.995804
05430,2,0,-50.0000,16.313928,-3.405214,-3.688921,-0.000413,5.219472,6.436518,-1.310100,-1.296692,-4.974891,0.409452,0.112044,-0.483944,0.162455,-0.038335,-0.035593,0.999648,-0.006550,-0.006483,-0.024872,-0.997892,0.055954,0.025423,-0.020860,-6.480536,-2.774443,2.552138,0.997837,0.044476,0.048404,-0.038786,0.992868,-0.112733,-0.053073,0.110612,0.992446
05431,2,0,-50.0000,16.528422,-5.466039,-3.610276,0.554549,8.066564,6.019331,-1.724666,-1.447216,-4.667741,0.430495,0.132831,-0.473067,0.164197,-0.058803,-0.034417,0.999664,-0.008622,-0.007235,-0.023336,-0.996509,0.079971,0.016463,-0.017409,-9.208605,-1.720601,2.140286,0.998852,0.037330,0.030026,-0.032063,0.986603,-0.159957,-0.035595,0.158811,0.986667
05432,2,0,-50.0000,17.213545,-8.882763,-3.477856,1.437230,12.237971,5.529790,-1.921398,-1.499547,-4.345772,0.442482,0.161539,-0.465754,0.170397,-0.092863,-0.032617,0.999690,-0.009606,-0.007497,-0.021727,-0.994609,0.102656,0.007491,-0.012615,-11.794905,-0.705447,1.526149,0.999570,0.026631,0.012312,-0.023555,0.978605,-0.204394,-0.017492,0.204016,0.978811
05433,2,0,-50.0000,18.120033,-10.143952,-2.348349,3.243869,14.141984,5.225716,-1.967380,-1.354391,-4.014671,0.449199,0.190706,-0.451910,0.179262,-0.105267,-0.021242,0.999727,-0.009836,-0.006771,-0.020072,-0.992283,0.123778,-0.000555,-0.007244,-14.219637,0.165877,0.815813,0.999894,0.014238,-0.002895,-0.014513,0.969253,-0.245639,-0.000691,0.245655,0.969357
05434,2,0,-50.0000,18.885561,-11.277841,-1.289390,4.940724,15.804505,4.721889,-1.965389,-1.107140,-3.596825,0.464053,0.205270,-0.439820,0.186849,-0.116263,-0.010725,0.999775,-0.009826,-0.005535,-0.017983,-0.989696,0.142998,-0.007110,-0.001566,-16.442766,0.832066,0.061061,0.999894,0.001066,-0.014522,-0.005133,0.959098,-0.283028,0.013626,0.283072,0.959002
05435,2,0,-50.0000,18.743950,-12.663128,-0.938667,5.697519,17.453986,3.431810,-1.726472,-0.770585,-3.040024,0.462417,0.228607,-0.427203,0.185517,-0.129532,-0.007560,0.999840,-0.008632,-0.003853,-0.015199,-0.987149,0.159329,-0.011801,0.003429,-18.343953,1.272354,-0.603552,0.999698,-0.010531,-0.022205,0.003011,0.949205,-0.314643,0.024391,0.314481,0.948950
05436,2,0,-50.0000,17.501967,-13.709756,-1.425142,5.242551,18.463713,1.495849,-1.524861,-0.491818,-2.355632,0.476773,0.240007,-0.424857,0.173421,-0.139248,-0.012767,0.999899,-0.007624,-0.002459,-0.011778,-0.984903,0.172285,-0.014766,0.008067,-19.860096,1.507394,-1.202525,0.999434,-0.020979,-0.026306,0.010804,0.940505,-0.339607,0.031866,0.339131,0.940199
05437,2,0,-50.0000,15.369791,-15.137398,-3.512098,3.006398,19.723447,-0.888813,-1.425552,-0.311653,-1.618750,0.474838,0.247668,-0.421025,0.152518,-0.152856,-0.033797,0.999941,-0.007128,-0.001558,-0.008094,-0.983135,0.181680,-0.016372,0.013031,-20.964796,1.573395,-1.809869,0.999124,-0.031571,-0.027457,0.019673,0.933645,-0.357659,0.036927,0.356806,0.933448
05438,2,0,-50.0000,13.011295,-16.506685,-4.839021,1.408482,20.579604,-3.514432,-1.260008,-0.250576,-0.846221,0.481185,0.259049,-0.412653,0.129472,-0.165915,-0.047184,0.999970,-0.006300,-0.001253,-0.004231,-0.981991,0.187268,-0.017186,0.018131,-21.626143,1.545047,-2.410623,0.998752,-0.042046,-0.026963,0.029172,0.929204,-0.368415,0.040544,0.367168,0.929270
05439,2,0,-49.0000,11.413976,-17.436252,-4.467280,1.591049,20.819711,-5.539173,-0.967736,-0.285121,-0.070483,0.470891,0.262481,-0.414354,0.114141,-0.174616,-0.043666,0.999987,-0.004839,-0.001426,-0.000352,-0.981593,0.188771,-0.017783,0.022912,-21.810331,1.504770,-2.964219,0.998318,-0.051694,-0.026260,0.038267,0.927681,-0.371407,0.043561,0.369777,0.928099
05440,2,0,-50.0000,11.082157,-17.413194,-3.919756,2.186034,20.532153,-5.933719,-0.663458,-0.300408,0.704405,0.470763,0.262782,-0.403930,0.111492,-0.173868,-0.038453,0.999987,-0.003317,-0.001502,0.003522,-0.981961,0.186233,-0.018039,0.027269,-21.521333,1.448026,-3.456626,0.997862,-0.060274,-0.025270,0.046836,0.929148,-0.366730,0.045584,0.364763,0.929984
05441,2,0,-50.0000,11.406881,-16.737070,-3.460173,2.777880,19.853023,-5.301350,-0.359408,-0.236745,1.462446,0.474238,0.259969,-0.413257,0.115329,-0.166592,-0.034166,0.999971,-0.001797,-0.001184,0.007312,-0.983063,0.179745,-0.017589,0.031122,-20.768567,1.340489,-3.872206,0.997444,-0.067513,-0.023394,0.054867,0.933446,-0.354497,0.045770,0.352307,0.934764
05442,2,0,-50.0000,12.874894,-12.097898,-4.957618,1.223971,16.349147,-1.572819,-0.039615,-0.143551,2.109601,0.473895,0.249887,-0.415188,0.130051,-0.119622,-0.049459,0.999944,-0.000198,-0.000718,0.010548,-0.984742,0.169841,-0.016361,0.034203,-19.614458,1.180641,-4.182600,0.997125,-0.072920,-0.020605,0.061805,0.939968,-0.335618,0.043841,0.333380,0.941773
05443,2,0,-50.0000,19.841688,12.639355,-10.394956,-5.690317,-3.182598,15.066528,-0.119976,-0.074985,1.980969,0.466442,0.248035,-0.420213,0.197191,0.128288,-0.103952,0.999951,-0.000600,-0.000375,0.009905,-0.986186,0.160668,-0.014861,0.037432,-18.545480,0.990360,-4.509035,0.996756,-0.078605,-0.017284,0.069054,0.945569,-0.318010,0.041340,0.315785,0.947930
05444,2,0,-50.0000,36.852101,2.420157,11.054990,20.982506,5.108716,22.120347,0.768943,1.385228,2.180225,0.460476,0.236144,-0.427931,0.368985,0.027804,0.108098,0.999909,0.003845,0.006926,0.010901,-0.987988,0.150291,-0.006713,0.035328,-17.304265,0.151590,-4.118795,0.997414,-0.071824,-0.002646,0.067789,0.952329,-0.297445,0.023883,0.296496,0.954735
05445,2,0,-50.0000,8.029988,0.614746,7.413805,9.171369,-0.304079,-3.844960,1.494450,1.212206,3.227423,0.456414,0.213333,-0.442005,0.080640,0.006895,0.073700,0.999824,0.007472,0.006061,0.016136,-0.990509,0.133839,0.001012,0.031257,-15.372256,-0.594285,-3.534680,0.998044,-0.061649,0.010372,0.062191,0.962220,-0.265075,0.006362,0.265202,0.964172
05446,2,0,-50.0000,13.729163,-2.118404,0.378920,4.430928,4.993193,2.374997,-1.209985,0.068948,3.157487,0.453281,0.209966,-0.441895,0.137604,-0.018990,0.003861,0.999857,-0.006050,0.000345,0.015787,-0.991857,0.120515,0.004729,0.040908,-13.811311,-1.102477,-4.589969,0.996608,-0.080010,0.019241,0.082289,0.967605,-0.238681,0.000479,0.239455,0.970907
05447,2,0,-50.0000,6.123692,-3.902323,-1.833347,0.609699,5.339805,-4.597408,-0.998931,0.437311,3.466707,0.447442,0.204288,-0.455223,0.061862,-0.038046,-0.018277,0.999835,-0.004994,0.002186,0.017333,-0.993107,0.105664,0.010391,0.049653,-12.060246,-1.784065,-5.536111,0.994853,-0.096426,0.031133,0.100818,0.972739,-0.208839,-0.010147,0.210903,0.977454
05448,2,0,-50.0000,5.967482,1.446153,-7.475687,-5.839375,1.484076,-2.243918,-0.970856,-0.324855,3.070640,0.444140,0.198660,-0.457600,0.059569,0.015014,-0.074732,0.999869,-0.004854,-0.001624,0.015353,-0.993975,0.092065,0.011965,0.058264,-10.470792,-1.977896,-6.528066,0.992924,-0.113622,0.034514,0.118028,0.976259,-0.181626,-0.013058,0.184414,0.982762
05449,2,0,-50.0000,8.292865,5.673527,-2.009688,-1.110383,-3.762785,-0.346850,-2.069155,-0.162564,2.759981,0.434546,0.193953,-0.458228,0.082154,0.057661,-0.020623,0.999851,-0.010345,-0.000813,0.013799,-0.993994,0.081436,0.014436,0.071664,-9.204333,-2.313687,-8.061186,0.989312,-0.140116,0.040370,0.144819,0.976465,-0.159825,-0.017026,0.163964,0.986319
05450,2,0,-50.0000,7.209780,-4.120739,-0.232704,2.631237,4.749070,-3.525240,-2.658065,-0.569079,2.890341,0.428656,0.196590,-0.463941,0.072689,-0.040184,-0.001582,0.999803,-0.013289,-0.002845,0.014451,-0.993480,0.070562,0.015223,0.088241,-7.911454,-2.447275,-9.982196,0.983963,-0.173184,0.042700,0.177481,0.974469,-0.137517,-0.017794,0.142890,0.989579
05451,2,0,-50.0000,11.400788,-7.396977,-3.813193,1.425734,9.056712,0.918485,-2.105462,-1.227271,2.983836,0.442530,0.184324,-0.467035,0.115326,-0.072647,-0.036657,0.999814,-0.010527,-0.006136,0.014918,-0.992958,0.057906,0.012749,0.102563,-6.457043,-2.131658,-11.674129,0.978637,-0.202205,0.037196,0.205158,0.972256,-0.112380,-0.013440,0.117611,0.992969
05452,2,0,-49.0000,14.066252,-3.226521,-3.208836,1.550476,4.779974,4.090794,-2.807471,-0.272374,2.479581,0.436513,0.200158,-0.466377,0.141095,-0.030962,-0.031456,0.999824,-0.014037,-0.001362,0.012397,-0.991532,0.049458,0.014497,0.119194,-5.434109,-2.323317,-13.599242,0.971165,-0.234936,0.040538,0.237804,0.966693,-0.094623,-0.016958,0.101535,0.994687
05453,2,0,-50.0000,7.111411,-4.383514,-3.567837,0.002394,5.565903,-2.633857,-2.943865,0.091423,1.982307,0.427405,0.210097,-0.468154,0.071531,-0.043647,-0.035068,0.999842,-0.014719,0.000457,0.009911,-0.989624,0.043901,0.017439,0.135697,-4.717755,-2.661254,-15.505773,0.962564,-0.267047,0.046431,0.270110,0.959318,-0.082159,-0.022602,0.091624,0.995537
05454,2,0,-49.0000,7.180530,-8.332774,-5.306576,0.007505,9.787471,-2.508138,-1.081490,-0.299967,1.811175,0.422749,0.207994,-0.472182,0.072637,-0.082957,-0.052508,0.999943,-0.005407,-0.001500,0.009056,-0.988861,0.036371,0.018227,0.143175,-3.829268,-2.663129,-16.387965,0.958337,-0.281835,0.046464,0.284487,0.956356,-0.066711,-0.025634,0.077150,0.996690
05455,2,0,-49.0000,9.317599,-7.532187,-3.003364,2.298310,8.018822,-0.703138,0.410060,-0.221634,1.723499,0.423477,0.201647,-0.477198,0.093853,-0.074453,-0.030083,0.999960,0.002050,-0.001108,0.008617,-0.989099,0.027500,0.019298,0.143370,-2.803923,-2.639956,-16.430501,0.958146,-0.282552,0.046060,0.284675,0.957378,-0.048866,-0.030289,0.059933,0.997743
05456,2,0,-49.0000,9.700738,-7.379200,-3.002560,2.244246,7.716768,-0.169964,1.403022,-0.167676,1.573540,0.421978,0.180855,-0.480076,0.097608,-0.072813,-0.030457,0.999944,0.007015,-0.000838,0.007868,-0.989970,0.018169,0.020512,0.138597,-1.737419,-2.616436,-15.899692,0.960740,-0.273668,0.045650,0.275159,0.960921,-0.030287,-0.035577,0.041659,0.998498
05457,2,0,-50.0000,10.339219,-6.077185,-3.720232,1.102333,6.593028,0.816605,2.593280,-0.220541,1.331936,0.424749,0.165179,-0.477805,0.103833,-0.059593,-0.037866,0.999893,0.012966,-0.001103,0.006659,-0.991534,0.008453,0.021284,0.127812,-0.649346,-2.542939,-14.675816,0.966422,-0.253100,0.044368,0.253820,0.967185,-0.011322,-0.040047,0.022203,0.998951
05458,2,0,-50.0000,10.118977,-0.894845,-1.054984,1.546966,0.672406,0.260073,3.017273,-0.080223,1.079859,0.432636,0.149965,-0.484810,0.101240,-0.008242,-0.010637,0.999872,0.015086,-0.000401,0.005399,-0.993153,-0.000443,0.022514,0.114632,0.346513,-2.557255,-13.175840,0.972705,-0.227713,0.044618,0.227673,0.973719,0.006042,-0.044821,0.004281,0.998986
05459,2,0,-49.0000,9.101338,3.420303,0.996783,1.813781,-4.112011,-1.133577,2.207901,-0.133325,0.900137,0.428810,0.129155,-0.487802,0.090852,0.034499,0.010408,0.999929,0.011039,-0.000667,0.004501,-0.994162,-0.007552,0.023153,0.105112,1.140409,-2.547527,-12.096144,0.976831,-0.209346,0.044448,0.208646,0.977789,0.019883,-0.047623,-0.010148,0.998814
05460,2,0,-49.0000,9.154414,5.433258,1.067960,1.323920,-6.138473,-1.150738,0.920042,-0.314759,0.886792,0.435577,0.125982,-0.480559,0.091285,0.054687,0.011074,0.999978,0.004600,-0.001574,0.004434,-0.994460,-0.013216,0.022672,0.101790,1.772425,-2.430194,-11.726155,0.978250,-0.203051,0.042402,0.201853,0.978928,0.030902,-0.047783,-0.021671,0.998623
05461,2,0,-49.0000,9.116810,3.242560,-1.196174,-0.113231,-3.479077,-0.705346,-0.094029,-0.417240,0.958457,0.437473,0.117743,-0.478806,0.091036,0.032857,-0.011787,0.999986,-0.000470,-0.002086,0.004792,-0.994237,-0.018079,0.021545,0.103447,2.317600,-2.240868,-11.925426,0.977669,-0.206480,0.039101,0.204922,0.977944,0.040408,-0.046582,-0.031493,0.998418
05462,2,0,-49.0000,8.844686,0.908812,-2.093290,-0.295430,-1.054516,-0.744254,-0.648544,-0.441883,0.939512,0.441223,0.111773,-0.485929,0.088449,0.009436,-0.020768,0.999981,-0.003243,-0.002209,0.004698,-0.993726,-0.022200,0.020164,0.107749,2.779726,-2.022391,-12.425836,0.975967,-0.215042,0.035290,0.213251,0.975795,0.048466,-0.044858,-0.039776,0.998201
05463,2,0,-49.0000,9.121594,-1.405905,-2.373134,0.247234,1.127750,-0.353390,-0.921308,-0.456642,0.850276,0.443786,0.114394,-0.479546,0.091329,-0.013779,-0.023459,0.999978,-0.004607,-0.002283,0.004251,-0.993064,-0.025573,0.018541,0.113251,3.153802,-1.778285,-13.060955,0.973661,-0.225879,0.031032,0.223982,0.973041,0.054990,-0.042616,-0.046591,0.998005
05464,2,0,-50.0000,9.787599,-2.582464,-2.924832,0.304716,2.267024,0.472640,-0.745513,-0.445276,0.758402,0.447237,0.115265,-0.471129,0.098038,-0.025561,-0.028935,0.999983,-0.003728,-0.002226,0.003792,-0.992479,-0.028719,0.016938,0.117787,3.498315,-1.538919,-13.583393,0.971679,-0.234776,0.026856,0.232830,0.970603,0.060997,-0.040387,-0.053017,0.997777
05465,2,0,-49.0000,10.183413,-4.069176,-3.548036,0.349369,3.744027,1.082643,-0.231136,-0.371723,0.667642,0.440832,0.120917,-0.476192,0.102035,-0.040392,-0.035244,0.999992,-0.001156,-0.001859,0.003338,-0.992165,-0.031996,0.015742,0.119738,3.857734,-1.350839,-13.808207,0.970830,-0.238606,0.023574,0.236592,0.969278,0.067261,-0.038899,-0.059721,0.997457
05466,2,0,-50.0000,10.373227,-5.003604,-3.429129,0.824100,4.486264,1.304529,0.465657,-0.324993,0.573608,0.441850,0.115759,-0.481542,0.103931,-0.049658,-0.034238,0.999992,0.002328,-0.001625,0.002868,-0.992235,-0.035655,0.014905,0.118224,4.260783,-1.211752,-13.634458,0.971602,-0.235674,0.021147,0.233548,0.969504,0.074280,-0.038008,-0.067231,0.997013
05467,2,0,-49.0000,9.987134,-4.829200,-3.890602,0.229034,4.431497,1.073511,1.185465,-0.279158,0.469287,0.445845,0.106565,-0.480118,0.100038,-0.047826,-0.039051,0.999979,0.005927,-0.001396,0.002346,-0.992684,-0.039671,0.014411,0.113121,4.705665,-1.125097,-13.048363,0.973992,-0.225730,0.019635,0.223443,0.971260,0.082021,-0.037586,-0.075501,0.996437
05468,2,0,-49.0000,9.410026,-2.896306,-3.807497,-0.492341,2.568058,0.414529,1.741363,-0.259070,0.366068,0.441372,0.099856,-0.472541,0.094202,-0.028458,-0.038202,0.999960,0.008707,-0.001295,0.001830,-0.993381,-0.043881,0.014112,0.105213,5.173210,-1.077372,-12.140429,0.977462,-0.210271,0.018803,0.207794,0.974009,0.090151,-0.037270,-0.084212,0.995751
05469,2,0,-50.0000,9.544849,0.165205,-3.412478,-1.056038,-0.563566,0.254232,1.836012,-0.209744,0.310051,0.442246,0.086123,-0.477851,0.095481,0.002113,-0.034007,0.999956,0.009180,-0.001049,0.001550,-0.994055,-0.047887,0.014022,0.096773,5.620345,-1.066290,-11.173003,0.980877,-0.193739,0.018609,0.191053,0.976684,0.097919,-0.037146,-0.092491,0.995020
05470,2,0,-50.0000,9.227297,2.423801,-2.741399,-1.145394,-2.939892,-0.401123,1.560353,-0.110866,0.337228,0.445390,0.073437,-0.472643,0.092247,0.024606,-0.027172,0.999968,0.007802,-0.000554,0.001686,-0.994529,-0.051579,0.014352,0.089698,6.038006,-1.105506,-10.365581,0.983497,-0.179895,0.019294,0.176934,0.978588,0.105169,-0.037800,-0.100019,0.994267
05471,2,0,-50.0000,9.345649,2.781997,-1.936397,-0.442696,-3.571888,-0.545784,1.002153,-0.139643,0.410744,0.443140,0.063363,-0.472272,0.093412,0.028108,-0.019158,0.999985,0.005011,-0.000698,0.002054,-0.994728,-0.054934,0.014388,0.085393,6.417212,-1.102577,-9.874939,0.985002,-0.171466,0.019242,0.168305,0.979380,0.111747,-0.038006,-0.106832,0.993550
05472,2,0,-50.0000,9.475291,2.234868,-2.151368,-0.458023,-3.075801,-0.339909,0.401370,-0.114237,0.498192,0.453045,0.064588,-0.481105,0.094709,0.022628,-0.021414,0.999995,0.002007,-0.000571,0.002491,-0.994669,-0.057926,0.014405,0.084093,6.758073,-1.083731,-9.729035,0.985442,-0.168959,0.018914,0.165621,0.979146,0.117656,-0.038398,-0.112811,0.992874
05473,2,0,-50.0000,9.522158,0.718934,-2.221646,-0.114930,-1.666767,-0.151813,0.010826,-0.121949,0.564770,0.452963,0.059077,-0.476521,0.095214,0.007459,-0.022158,0.999996,0.000054,-0.000610,0.002824,-0.994446,-0.060742,0.014277,0.084756,7.079721,-1.037008,-9.807131,0.985225,-0.170304,0.018098,0.166835,0.978254,0.123230,-0.038691,-0.118390,0.992213
05474,2,0,-49.0000,9.507131,-0.898283,-2.599136,-0.047985,-0.079359,0.083732,-0.124347,-0.087799,0.585019,0.456259,0.058023,-0.476170,0.095108,-0.008721,-0.025944,0.999995,-0.000622,-0.000439,0.002925,-0.994161,-0.063456,0.014287,0.086099,7.391621,-1.001636,-9.964186,0.984766,-0.173006,0.017481,0.169380,0.977121,0.128631,-0.039335,-0.123710,0.991538
05475,2,0,-50.0000,9.515091,-2.070236,-2.931226,-0.048231,1.064723,0.300606,-0.021486,-0.071434,0.575671,0.447211,0.052997,-0.477457,0.095220,-0.020431,-0.029276,0.999996,-0.000107,-0.000357,0.002878,-0.993905,-0.066236,0.014405,0.086939,7.711720,-0.980772,-10.064173,0.984468,-0.174725,0.017117,0.170909,0.976109,0.134169,-0.040151,-0.129160,0.990811
05476,2,0,-50.0000,9.468138,-2.631204,-2.917540,0.097286,1.548255,0.320133,0.215167,-0.081664,0.557542,0.450099,0.055878,-0.478259,0.094766,-0.026017,-0.029165,0.999995,0.001076,-0.000408,0.002788,-0.993726,-0.069241,0.014568,0.086614,8.056900,-0.971751,-10.031140,0.984572,-0.174158,0.016959,0.170123,0.975408,0.140136,-0.040948,-0.135089,0.989987
05477,2,0,-49.0000,9.805846,-2.463324,-2.892075,0.137886,1.258580,0.626817,0.493756,-0.083757,0.541625,0.449883,0.050543,-0.467810,0.098137,-0.024296,-0.028940,0.999993,0.002469,-0.000419,0.002708,-0.993634,-0.072519,0.014825,0.084928,8.433084,-0.982253,-9.843083,0.985135,-0.170925,0.017143,0.166625,0.975056,0.146633,-0.041778,-0.141597,0.989042
05478,2,0,-50.0000,9.881904,-1.536231,-2.916479,-0.132147,0.293493,0.599508,0.685307,-0.076748,0.546857,0.449163,0.038553,-0.486868,0.098872,-0.014992,-0.029179,0.999990,0.003427,-0.000384,0.002734,-0.993582,-0.076059,0.015217,0.082329,8.839736,-1.015015,-9.551953,0.985981,-0.165916,0.017714,0.161286,0.974874,0.153647,-0.042762,-0.148636,0.987967
05479,2,0,-49.0000,9.917613,-0.881408,-2.955152,-0.348032,-0.407631,0.559440,0.770664,-0.099101,0.581569,0.450595,0.035839,-0.473329,0.099216,-0.008412,-0.029535,0.999988,0.003853,-0.000496,0.002908,-0.993518,-0.079886,0.015559,0.079357,9.278403,-1.044945,-9.218327,0.986921,-0.160170,0.018237,0.155199,0.974642,0.161205,-0.043595,-0.156266,0.986752
05480,2,0,-49.0000,10.270890,-0.381886,-2.581151,-0.058599,-1.116503,0.725278,0.783981,-0.104321,0.645447,0.455612,0.022994,-0.475990,0.102734,-0.003386,-0.025772,0.999987,0.003920,-0.000522,0.003227,-0.993402,-0.084038,0.015940,0.076399,9.754806,-1.078819,-8.887605,0.987818,-0.154469,0.018828,0.149111,0.974202,0.169402,-0.044510,-0.164531,0.985367
05481,2,0,-50.0000,10.481918,0.012858,-2.354873,0.091585,-1.672489,0.799091,0.736764,-0.106707,0.727537,0.449807,0.027733,-0.467536,0.104830,0.000597,-0.023491,0.999986,0.003684,-0.000534,0.003638,-0.993205,-0.088517,0.016339,0.073772,10.269280,-1.111338,-8.595739,0.988582,-0.149434,0.019395,0.143649,0.973445,0.178241,-0.045515,-0.173420,0.983796
05482,2,0,-49.0000,10.211612,0.262120,-3.291516,-0.924945,-1.770710,0.731879,0.648934,-0.129840,0.846654,0.447386,0.020229,-0.472438,0.102125,0.003160,-0.032839,0.999986,0.003245,-0.000649,0.004233,-0.992896,-0.093471,0.016675,0.071711,10.838536,-1.129171,-8.369015,0.989159,-0.145520,0.019706,0.139285,0.972241,0.188005,-0.046518,-0.183222,0.981970
05483,2,0,-49.0000,8.602586,-0.645608,-7.530871,-5.081578,0.132219,0.448593,0.626073,-0.294767,0.964628,0.439669,0.002550,-0.464973,0.086166,-0.005805,-0.075201,0.999982,0.003130,-0.001474,0.004823,-0.992490,-0.099091,0.016265,0.069854,11.478449,-1.056660,-8.158175,0.989712,-0.141882,0.018441,0.135436,0.970603,0.198965,-0.046129,-0.194421,0.979833
05484,2,0,-49.0000,10.386802,-1.718894,-4.188831,-1.287130,0.003910,1.444671,0.828009,-0.161910,1.031538,0.446528,0.001472,-0.479294,0.103988,-0.016479,-0.041873,0.999978,0.004140,-0.000810,0.005158,-0.992044,-0.105167,0.016677,0.067159,12.177343,-1.086557,-7.861692,0.990423,-0.136758,0.018963,0.129742,0.968859,0.210900,-0.047215,-0.206420,0.977324
05485,2,0,-49.0000,9.681610,-1.734466,-4.540358,-1.798670,0.103355,0.869498,0.889409,-0.139953,1.079600,0.441480,-0.007230,-0.474851,0.096939,-0.016620,-0.045411,0.999975,0.004447,-0.000700,0.005398,-0.991533,-0.111522,0.017259,0.064238,12.909819,-1.140188,-7.542606,0.991151,-0.131237,0.019899,0.123538,0.966873,0.223373,-0.048554,-0.218938,0.974530
05486,2,0,-49.0000,10.605755,-1.662022,-2.743240,0.063426,-0.641698,1.248591,1.128323,-0.129074,1.167155,0.450056,-0.014832,-0.470392,0.106169,-0.015846,-0.027455,0.999967,0.005642,-0.000645,0.005836,-0.990948,-0.118576,0.018108,0.060283,13.723954,-1.237228,-7.111393,0.992076,-0.123770,0.021592,0.115181,0.964611,0.237189,-0.050185,-0.232823,0.971224
05487,2,0,-49.0000,11.547115,-1.574761,-0.913892,1.956531,-1.402197,1.626493,1.255707,-0.088112,1.201050,0.436640,-0.033667,-0.471986,0.115567,-0.014996,-0.009184,0.999962,0.006278,-0.000441,0.006005,-0.990286,-0.125906,0.019255,0.055777,14.571428,-1.380446,-6.623930,0.993036,-0.115319,0.024091,0.105621,0.962073,0.251514,-0.052182,-0.247218,0.967554
05488,2,0,-49.0000,12.424430,0.086396,-0.553197,2.117117,-3.425477,1.954281,1.271176,-0.029867,1.286029,0.435971,-0.046899,-0.464706,0.124236,0.001698,-0.005504,0.999959,0.006356,-0.000149,0.006430,-0.989487,-0.133605,0.020756,0.051330,15.463878,-1.567760,-6.151979,0.993869,-0.107126,0.027359,0.096034,0.959030,0.266531,-0.054791,-0.262269,0.963438
05489,2,0,-50.0000,12.659795,1.118616,0.401016,2.849200,-4.758993,1.629080,1.046205,0.045069,1.409000,0.433964,-0.052777,-0.471496,0.126516,0.012057,0.004043,0.999961,0.005231,0.000225,0.007045,-0.988503,-0.141543,0.022527,0.048156,16.387704,-1.770925,-5.833075,0.994347,-0.101582,0.030904,0.088828,0.955293,0.282001,-0.058168,-0.277662,0.958916
05490,2,0,-49.0000,12.898853,1.274877,0.268330,2.706300,-5.133961,1.780102,0.738733,0.076900,1.561909,0.424983,-0.063196,-0.472296,0.128885,0.013746,0.002683,0.999963,0.003694,0.000384,0.007809,-0.987315,-0.149799,0.024314,0.046665,17.351939,-1.950194,-5.709720,0.994462,-0.099431,0.034031,0.084862,0.950765,0.298067,-0.061992,-0.293529,0.953938
05491,2,0,-49.0000,12.758057,1.468638,-0.259377,2.084582,-5.403848,1.652084,0.415733,0.146622,1.726484,0.440398,-0.077772,-0.473537,0.127445,0.015792,-0.002655,0.999960,0.002079,0.000733,0.008632,-0.985910,-0.158384,0.026269,0.046972,18.360052,-2.115775,-5.797367,0.994207,-0.100942,0.036919,0.084299,0.945416,0.314773,-0.066677,-0.309837,0.948449
05492,2,0,-50.0000,12.548483,0.942917,-0.817035,1.540353,-4.987108,1.666525,0.127304,0.160968,1.894523,0.434166,-0.087244,-0.465725,0.125381,0.010622,-0.008265,0.999955,0.000637,0.000805,0.009472,-0.984275,-0.167396,0.028149,0.048875,19.422554,-2.237903,-6.068494,0.993638,-0.105637,0.039049,0.086789,0.939180,0.332279,-0.071775,-0.326776,0.942373
05493,2,0,-49.0000,12.524233,0.138457,-1.378631,1.076305,-4.391040,1.948733,-0.050900,0.183686,2.054086,0.427036,-0.099446,-0.471092,0.125207,0.002667,-0.013902,0.999947,-0.000254,0.000918,0.010270,-0.982399,-0.176919,0.030056,0.051845,20.549598,-2.333157,-6.464808,0.992817,-0.112500,0.040710,0.091229,0.932023,0.350727,-0.077399,-0.344494,0.935592
05494,2,0,-49.0000,12.678718,-0.610538,-1.742948,0.824837,-3.957267,2.345185,-0.130786,0.200609,2.183742,0.426429,-0.103014,-0.469150,0.126826,-0.004732,-0.017553,0.999940,-0.000654,0.001003,0.010918,-0.980289,-0.186927,0.032044,0.055362,21.737877,-2.414422,-6.928346,0.991817,-0.120521,0.042127,0.096562,0.923987,0.370032,-0.083522,-0.362936,0.928063
