// General information: 
//  MT Manager version: 2020.3.0 
//  XDA version: 2020.3.0 build 5439 rev 106958 built on 2020-11-10
// Device information: 
//  DeviceId: 00B46A09
//  ProductCode: MTW2-3A7G6
//  Firmware Version: 4.4.0
//  Hardware Version: 2.0.0
// Device settings: 
//  Filter Profile: human(46.1)
//  Option Flags: Orientation Smoother Disabled, Position/Velocity Smoother Disabled, Continuous Zero Rotation Update Disabled, AHS Disabled, ICC Disabled
// Coordinate system: ENU
PacketCounter,StatusWord,ClippingFlags,RSSI,Acc_X,Acc_Y,Acc_Z,FreeAcc_E,FreeAcc_N,FreeAcc_U,Gyr_X,Gyr_Y,Gyr_Z,Mag_X,Mag_Y,Mag_Z,VelInc_X,VelInc_Y,VelInc_Z,OriInc_q0,OriInc_q1,OriInc_q2,OriInc_q3,Quat_q0,Quat_q1,Quat_q2,Quat_q3,Roll,Pitch,Yaw,Mat[1][1],Mat[2][1],Mat[3][1],Mat[1][2],Mat[2][2],Mat[3][2],Mat[1][3],Mat[2][3],Mat[3][3]
05155,2,0,-56.0000,9.397478,0.209733,-2.789435,0.043039,-0.035894,-0.007873,-0.001569,-0.003116,-0.004276,-0.256019,-0.455554,-0.242273,0.093975,0.002095,-0.027893,1.000000,-0.000008,-0.000016,-0.000021,0.999969,-0.003499,0.003733,-0.005944,-0.403455,0.425377,-0.682589,0.999901,-0.011913,-0.007424,0.011861,0.999905,-0.007041,0.007507,0.006953,0.999948
05156,2,0,-56.0000,9.411390,0.234972,-2.758185,0.075956,-0.062193,-0.003129,0.001831,-0.000350,-0.009003,-0.254669,-0.449510,-0.243688,0.094114,0.002346,-0.027582,1.000000,0.000009,-0.000002,-0.000045,0.999969,-0.003531,0.003738,-0.005932,-0.407178,0.425925,-0.681251,0.999902,-0.011889,-0.007434,0.011837,0.999905,-0.007106,0.007518,0.007018,0.999947
05157,2,0,-56.0000,9.425181,0.220978,-2.772183,0.067766,-0.046923,0.013862,0.000949,-0.007366,-0.007163,-0.254397,-0.455319,-0.237660,0.094253,0.002207,-0.027718,1.000000,0.000005,-0.000037,-0.000036,0.999969,-0.003554,0.003782,-0.005928,-0.409814,0.430958,-0.680844,0.999901,-0.011882,-0.007522,0.011829,0.999904,-0.007152,0.007606,0.007063,0.999946
05158,2,0,-56.0000,9.444049,0.232418,-2.809025,0.038294,-0.056150,0.042773,0.008679,-0.008370,-0.005171,-0.259730,-0.453735,-0.244744,0.094442,0.002323,-0.028086,1.000000,0.000043,-0.000042,-0.000026,0.999969,-0.003556,0.003826,-0.005893,-0.410126,0.436065,-0.676901,0.999901,-0.011814,-0.007611,0.011759,0.999905,-0.007158,0.007695,0.007068,0.999945
05159,2,0,-56.0000,9.402982,0.178144,-2.748964,0.087399,-0.005136,-0.014885,0.012867,-0.008816,-0.006055,-0.259125,-0.453013,-0.243650,0.094031,0.001780,-0.027485,1.000000,0.000064,-0.000044,-0.000030,0.999969,-0.003557,0.003878,-0.005834,-0.410147,0.441950,-0.670137,0.999902,-0.011695,-0.007713,0.011640,0.999907,-0.007158,0.007796,0.007068,0.999945
05160,2,0,-56.0000,9.454826,0.185649,-2.835647,0.020133,-0.007975,0.059932,0.007081,-0.009066,-0.005080,-0.252982,-0.453920,-0.239095,0.094550,0.001855,-0.028352,1.000000,0.000035,-0.000045,-0.000025,0.999969,-0.003562,0.003925,-0.005801,-0.410745,0.447432,-0.666314,0.999902,-0.011629,-0.007809,0.011573,0.999907,-0.007169,0.007892,0.007077,0.999944
05161,2,0,-56.0000,9.396351,0.212364,-2.793030,0.043434,-0.036858,-0.007878,0.008949,-0.003887,-0.007622,-0.258130,-0.455655,-0.258957,0.093964,0.002121,-0.027928,1.000000,0.000045,-0.000019,-0.000038,0.999969,-0.003576,0.003952,-0.005758,-0.412376,0.450516,-0.661400,0.999902,-0.011543,-0.007863,0.011486,0.999908,-0.007197,0.007945,0.007106,0.999943
05162,2,0,-57.0000,9.426674,0.215791,-2.809407,0.036876,-0.039157,0.025942,0.002519,-0.004250,-0.002887,-0.253265,-0.451093,-0.249955,0.094267,0.002157,-0.028092,1.000000,0.000013,-0.000021,-0.000014,0.999969,-0.003579,0.003976,-0.005754,-0.412697,0.453275,-0.661013,0.999902,-0.011536,-0.007911,0.011479,0.999908,-0.007203,0.007993,0.007111,0.999943
05163,2,0,-57.0000,9.396070,0.173755,-2.838737,0.002395,0.004430,0.004376,0.000131,-0.001734,-0.006640,-0.258150,-0.457685,-0.243173,0.093961,0.001734,-0.028387,1.000000,0.000001,-0.000009,-0.000033,0.999969,-0.003601,0.003992,-0.005755,-0.415299,0.455068,-0.661083,0.999902,-0.011537,-0.007942,0.011480,0.999908,-0.007248,0.008025,0.007156,0.999942
05164,2,0,-56.0000,9.407435,0.166429,-2.818577,0.025330,0.011190,0.009285,-0.000244,0.002637,-0.005331,-0.269717,-0.453883,-0.246641,0.094074,0.001662,-0.028187,1.000000,-0.000001,0.000013,-0.000027,0.999969,-0.003620,0.003982,-0.005760,-0.417510,0.453899,-0.661746,0.999902,-0.011549,-0.007922,0.011491,0.999907,-0.007287,0.008005,0.007195,0.999942
05165,2,0,-57.0000,9.398760,0.207336,-2.827135,0.012532,-0.028926,0.004205,0.001356,0.003333,-0.005423,-0.255578,-0.447576,-0.248765,0.093987,0.002071,-0.028273,1.000000,0.000007,0.000017,-0.000027,0.999969,-0.003637,0.003972,-0.005756,-0.419346,0.452769,-0.661288,0.999902,-0.011541,-0.007902,0.011483,0.999907,-0.007319,0.007986,0.007227,0.999942
05166,2,0,-56.0000,9.440675,0.202902,-2.822623,0.028860,-0.024318,0.042935,0.008199,0.004855,-0.005005,-0.257841,-0.453367,-0.249626,0.094406,0.002028,-0.028228,1.000000,0.000041,0.000024,-0.000025,0.999969,-0.003644,0.003950,-0.005710,-0.420131,0.450293,-0.656003,0.999904,-0.011449,-0.007859,0.011391,0.999908,-0.007332,0.007942,0.007242,0.999942
05167,2,0,-57.0000,9.399062,0.207935,-2.826086,0.012666,-0.029215,0.004204,0.005780,0.009791,-0.004390,-0.254762,-0.457427,-0.253331,0.093989,0.002078,-0.028265,1.000000,0.000029,0.000049,-0.000022,0.999970,-0.003650,0.003908,-0.005686,-0.420800,0.445460,-0.653213,0.999905,-0.011400,-0.007775,0.011343,0.999909,-0.007344,0.007858,0.007255,0.999943
05168,2,0,-57.0000,9.479427,0.225232,-2.892896,-0.029978,-0.042746,0.100758,0.011804,0.016946,-0.003450,-0.264022,-0.454647,-0.253152,0.094792,0.002252,-0.028937,1.000000,0.000059,0.000085,-0.000017,0.999970,-0.003647,0.003827,-0.005635,-0.420371,0.436160,-0.647310,0.999907,-0.011297,-0.007612,0.011241,0.999910,-0.007337,0.007695,0.007250,0.999944
05169,2,0,-56.0000,9.449680,0.182426,-2.919556,-0.064455,0.000847,0.079198,0.018135,0.034115,0.001500,-0.256611,-0.456304,-0.245916,0.094492,0.001828,-0.029212,1.000000,0.000091,0.000171,0.000007,0.999971,-0.003612,0.003662,-0.005558,-0.416267,0.417316,-0.638430,0.999911,-0.011142,-0.007283,0.011089,0.999912,-0.007265,0.007364,0.007184,0.999947
05170,2,0,-56.0000,9.342751,0.233570,-2.776254,0.036036,-0.058341,-0.063614,0.008094,0.031201,0.001261,-0.254402,-0.454716,-0.249874,0.093423,0.002337,-0.027777,1.000000,0.000040,0.000156,0.000006,0.999972,-0.003595,0.003508,-0.005525,-0.414142,0.399670,-0.634596,0.999914,-0.011075,-0.006976,0.011025,0.999913,-0.007228,0.007055,0.007150,0.999950
05171,2,0,-57.0000,9.377532,0.170366,-2.758320,0.063662,0.003770,-0.036626,0.000470,0.023350,0.000410,-0.256336,-0.452916,-0.248033,0.093772,0.001704,-0.027594,1.000000,0.000002,0.000117,0.000002,0.999972,-0.003588,0.003397,-0.005532,-0.413341,0.386944,-0.635361,0.999916,-0.011089,-0.006753,0.011040,0.999913,-0.007214,0.006833,0.007139,0.999951
05172,2,0,-56.0000,9.408608,0.213062,-2.727143,0.098291,-0.040126,-0.015069,0.006396,0.021866,-0.007204,-0.252909,-0.458412,-0.247769,0.094083,0.002128,-0.027282,1.000000,0.000032,0.000109,-0.000036,0.999973,-0.003612,0.003291,-0.005503,-0.415938,0.374881,-0.631959,0.999918,-0.011029,-0.006543,0.010982,0.999913,-0.007259,0.006622,0.007187,0.999952
05173,2,0,-56.0000,9.431773,0.158334,-2.730189,0.103021,0.015086,0.007012,0.001768,0.014033,-0.003691,-0.257477,-0.460442,-0.247443,0.094316,0.001582,-0.027308,1.000000,0.000009,0.000070,-0.000018,0.999973,-0.003621,0.003228,-0.005499,-0.416979,0.367588,-0.631444,0.999919,-0.011020,-0.006416,0.010974,0.999913,-0.007277,0.006495,0.007206,0.999953
05174,2,0,-57.0000,9.415583,0.140684,-2.726669,0.101367,0.032547,-0.009811,0.012632,0.011316,-0.003971,-0.259508,-0.459420,-0.250154,0.094154,0.001407,-0.027272,1.000000,0.000063,0.000057,-0.000020,0.999974,-0.003617,0.003174,-0.005448,-0.416443,0.361502,-0.625601,0.999920,-0.010918,-0.006309,0.010872,0.999914,-0.007268,0.006388,0.007199,0.999954
05175,2,0,-56.0000,9.451459,0.169535,-2.764376,0.073676,0.005697,0.035924,0.022375,0.004218,-0.007739,-0.254589,-0.458357,-0.248292,0.094514,0.001695,-0.027646,1.000000,0.000112,0.000021,-0.000039,0.999974,-0.003614,0.003161,-0.005340,-0.416095,0.360001,-0.613206,0.999923,-0.010702,-0.006283,0.010656,0.999917,-0.007262,0.006360,0.007195,0.999954
05176,2,0,-57.0000,9.426290,0.192077,-2.770565,0.059107,-0.016775,0.014016,0.029665,0.004481,-0.006531,-0.260071,-0.454384,-0.238027,0.094262,0.001922,-0.027707,1.000000,0.000148,0.000022,-0.000033,0.999975,-0.003597,0.003143,-0.005201,-0.414061,0.357953,-0.597330,0.999926,-0.010425,-0.006247,0.010380,0.999920,-0.007227,0.006322,0.007161,0.999954
05177,2,0,-56.0000,9.411480,0.265835,-2.821873,0.002191,-0.088283,0.015934,0.029056,0.001947,-0.007140,-0.254491,-0.454509,-0.253666,0.094115,0.002659,-0.028219,1.000000,0.000145,0.000010,-0.000036,0.999976,-0.003582,0.003140,-0.005062,-0.412236,0.357765,-0.581383,0.999929,-0.010147,-0.006244,0.010102,0.999923,-0.007195,0.006317,0.007131,0.999955
05178,2,0,-57.0000,9.420322,0.225332,-2.812672,0.015142,-0.048482,0.021019,0.023436,0.005492,-0.006350,-0.253025,-0.452856,-0.254097,0.094203,0.002254,-0.028129,1.000000,0.000117,0.000027,-0.000032,0.999977,-0.003572,0.003116,-0.004952,-0.411144,0.355070,-0.568772,0.999932,-0.009927,-0.006197,0.009882,0.999925,-0.007176,0.006268,0.007114,0.999955
05179,2,0,-56.0000,9.423066,0.218419,-2.846000,-0.015939,-0.040103,0.033110,0.020236,0.004099,-0.006167,-0.256408,-0.457561,-0.248521,0.094230,0.002184,-0.028462,1.000000,0.000101,0.000020,-0.000031,0.999977,-0.003565,0.003103,-0.004857,-0.410287,0.353593,-0.557808,0.999934,-0.009735,-0.006171,0.009691,0.999927,-0.007161,0.006241,0.007100,0.999955
05180,2,0,-57.0000,9.437135,0.243134,-2.814058,0.016995,-0.066389,0.037838,0.009878,0.008662,-0.003010,-0.253365,-0.452718,-0.242290,0.094370,0.002431,-0.028145,1.000000,0.000049,0.000043,-0.000015,0.999977,-0.003561,0.003063,-0.004820,-0.409767,0.349051,-0.553561,0.999935,-0.009661,-0.006092,0.009617,0.999928,-0.007152,0.006161,0.007093,0.999956
05181,2,0,-57.0000,9.418256,0.232137,-2.777064,0.046599,-0.057495,0.008924,0.008344,0.011076,-0.000827,-0.256773,-0.450122,-0.239506,0.094181,0.002322,-0.027776,1.000000,0.000042,0.000055,-0.000004,0.999978,-0.003547,0.003014,-0.004788,-0.408091,0.343410,-0.549925,0.999936,-0.009598,-0.005994,0.009555,0.999929,-0.007122,0.006062,0.007065,0.999957
05182,2,0,-57.0000,9.452574,0.168994,-2.760595,0.074165,0.004618,0.035921,0.007186,0.009118,0.000053,-0.259056,-0.446145,-0.240871,0.094524,0.001691,-0.027610,1.000000,0.000036,0.000046,0.000000,0.999978,-0.003530,0.002970,-0.004768,-0.406172,0.338401,-0.547559,0.999937,-0.009556,-0.005906,0.009514,0.999930,-0.007089,0.005974,0.007032,0.999957
05183,2,0,-57.0000,9.422302,0.165731,-2.743968,0.080869,0.006622,0.002098,0.010765,0.006140,-0.001433,-0.258971,-0.457911,-0.244204,0.094222,0.001658,-0.027442,1.000000,0.000054,0.000031,-0.000007,0.999978,-0.003514,0.002945,-0.004724,-0.404327,0.335609,-0.542545,0.999938,-0.009469,-0.005857,0.009427,0.999931,-0.007057,0.005924,0.007001,0.999958
05184,2,0,-57.0000,9.411178,0.173316,-2.763468,0.057993,-0.000411,-0.002810,0.021363,0.008484,-0.002684,-0.266683,-0.454246,-0.247533,0.094111,0.001735,-0.027638,1.000000,0.000107,0.000042,-0.000013,0.999979,-0.003491,0.002905,-0.004627,-0.401607,0.331058,-0.531333,0.999940,-0.009273,-0.005778,0.009233,0.999933,-0.007009,0.005843,0.006955,0.999959
05185,2,0,-56.0000,9.419078,0.231107,-2.774362,0.046870,-0.058136,0.008919,0.020479,0.001469,-0.000831,-0.256134,-0.453432,-0.249874,0.094191,0.002314,-0.027744,1.000000,0.000102,0.000007,-0.000004,0.999980,-0.003458,0.002904,-0.004538,-0.397734,0.330964,-0.521124,0.999942,-0.009095,-0.005776,0.009055,0.999935,-0.006942,0.005839,0.006889,0.999959
05186,2,0,-56.0000,9.454876,0.259212,-2.812485,0.019101,-0.084940,0.054651,0.019557,0.006419,0.001954,-0.255542,-0.462983,-0.250048,0.094548,0.002596,-0.028128,1.000000,0.000098,0.000032,0.000010,0.999980,-0.003415,0.002873,-0.004452,-0.392849,0.327531,-0.511330,0.999944,-0.008924,-0.005716,0.008885,0.999937,-0.006856,0.005777,0.006805,0.999960
05187,2,0,-56.0000,9.429973,0.241353,-2.863104,-0.036574,-0.065828,0.045017,0.017101,0.013784,0.006920,-0.252001,-0.455793,-0.251090,0.094298,0.002419,-0.028637,1.000000,0.000086,0.000069,0.000035,0.999981,-0.003352,0.002809,-0.004390,-0.385538,0.320196,-0.504107,0.999946,-0.008798,-0.005588,0.008760,0.999939,-0.006729,0.005647,0.006679,0.999962
05188,2,0,-56.0000,9.389559,0.186145,-2.800551,0.012494,-0.014784,-0.012627,-0.003039,0.019908,0.007379,-0.258822,-0.454928,-0.238903,0.093893,0.001864,-0.028015,1.000000,-0.000015,0.000100,0.000037,0.999981,-0.003318,0.002711,-0.004433,-0.381610,0.308944,-0.509026,0.999946,-0.008884,-0.005392,0.008848,0.999939,-0.006660,0.005451,0.006612,0.999963
05189,2,0,-56.0000,9.406644,0.203228,-2.801092,0.014295,-0.032570,0.004191,0.001050,0.018780,0.008772,-0.260274,-0.454656,-0.241276,0.094064,0.002037,-0.028020,1.000000,0.000005,0.000094,0.000044,0.999981,-0.003270,0.002621,-0.004450,-0.376033,0.298646,-0.510876,0.999947,-0.008916,-0.005212,0.008882,0.999939,-0.006563,0.005271,0.006516,0.999965
05190,2,0,-56.0000,9.415808,0.201423,-2.745517,0.068407,-0.034400,-0.002998,0.005686,0.017075,0.008680,-0.259871,-0.452299,-0.248011,0.094156,0.002019,-0.027463,1.000000,0.000028,0.000085,0.000043,0.999982,-0.003216,0.002535,-0.004444,-0.369762,0.288834,-0.510215,0.999948,-0.008905,-0.005041,0.008872,0.999940,-0.006453,0.005098,0.006408,0.999966
05191,2,0,-56.0000,9.424987,0.160086,-2.735069,0.081447,0.005367,0.002094,0.009266,0.014095,0.007196,-0.254667,-0.452520,-0.251069,0.094248,0.001606,-0.027357,1.000000,0.000046,0.000070,0.000036,0.999982,-0.003162,0.002469,-0.004420,-0.363599,0.281283,-0.507342,0.999949,-0.008855,-0.004909,0.008823,0.999941,-0.006346,0.004965,0.006302,0.999968
05192,2,0,-56.0000,9.453147,0.169185,-2.716161,0.106088,-0.005488,0.023819,0.013835,0.009277,0.005017,-0.257685,-0.455526,-0.245346,0.094530,0.001696,-0.027166,1.000000,0.000069,0.000046,0.000025,0.999983,-0.003114,0.002424,-0.004371,-0.358077,0.276187,-0.501758,0.999950,-0.008757,-0.004820,0.008727,0.999942,-0.006250,0.004875,0.006207,0.999969
05193,2,0,-56.0000,9.383774,0.163095,-2.737452,0.065291,0.000374,-0.036636,0.018028,0.008832,0.004137,-0.263986,-0.450978,-0.252653,0.093836,0.001635,-0.027379,1.000000,0.000090,0.000044,0.000021,0.999983,-0.003062,0.002385,-0.004300,-0.352045,0.271748,-0.493627,0.999952,-0.008615,-0.004743,0.008586,0.999944,-0.006144,0.004796,0.006103,0.999970
05194,2,0,-56.0000,9.451079,0.135039,-2.725692,0.096266,0.027274,0.024005,0.018681,0.008939,0.000377,-0.258184,-0.455968,-0.242654,0.094510,0.001353,-0.027261,1.000000,0.000093,0.000045,0.000002,0.999984,-0.003029,0.002342,-0.004218,-0.348257,0.266921,-0.484145,0.999953,-0.008450,-0.004659,0.008421,0.999946,-0.006078,0.004710,0.006039,0.999971
05195,2,0,-56.0000,9.400749,0.179679,-2.738375,0.067129,-0.017534,-0.019820,0.020659,0.005262,-0.001014,-0.257708,-0.453096,-0.246611,0.094007,0.001799,-0.027386,1.000000,0.000103,0.000026,-0.000005,0.999984,-0.002997,0.002322,-0.004127,-0.344545,0.264650,-0.473772,0.999955,-0.008269,-0.004619,0.008241,0.999948,-0.006013,0.004668,0.005975,0.999971
05196,2,0,-56.0000,9.459212,0.192267,-2.736008,0.085168,-0.030596,0.035725,0.019057,0.004565,-0.000922,-0.257365,-0.455835,-0.250275,0.094592,0.001925,-0.027362,1.000000,0.000095,0.000023,-0.000005,0.999985,-0.002968,0.002301,-0.004047,-0.341190,0.262339,-0.464564,0.999957,-0.008108,-0.004579,0.008081,0.999950,-0.005955,0.004627,0.005918,0.999972
05197,2,0,-56.0000,9.400928,0.178804,-2.737819,0.067274,-0.017848,-0.019822,0.019875,-0.001069,-0.001429,-0.255806,-0.445887,-0.251497,0.094009,0.001790,-0.027378,1.000000,0.000099,-0.000005,-0.000007,0.999985,-0.002938,0.002313,-0.003960,-0.337704,0.263697,-0.454614,0.999958,-0.007934,-0.004602,0.007907,0.999951,-0.005894,0.004649,0.005857,0.999972
05198,2,0,-56.0000,9.433945,0.213996,-2.742763,0.070704,-0.053197,0.013810,0.014521,-0.002581,0.000333,-0.266395,-0.448571,-0.241256,0.094340,0.002142,-0.027426,1.000000,0.000073,-0.000013,0.000002,0.999985,-0.002909,0.002329,-0.003904,-0.334443,0.265525,-0.448089,0.999959,-0.007820,-0.004634,0.007793,0.999953,-0.005837,0.004680,0.005801,0.999972
05199,2,0,-56.0000,9.436598,0.206531,-2.776595,0.039629,-0.044809,0.025907,0.016739,0.000651,0.000841,-0.252757,-0.454960,-0.244251,0.094366,0.002068,-0.027766,1.000000,0.000084,0.000003,0.000004,0.999986,-0.002873,0.002331,-0.003835,-0.330262,0.265836,-0.440213,0.999960,-0.007683,-0.004640,0.007656,0.999954,-0.005764,0.004684,0.005728,0.999973
05200,2,0,-56.0000,9.414833,0.162482,-2.751651,0.059187,-0.002834,-0.002817,0.016635,-0.000031,0.003115,-0.263313,-0.459029,-0.249289,0.094148,0.001629,-0.027516,1.000000,0.000083,-0.000000,0.000016,0.999986,-0.002827,0.002332,-0.003769,-0.325000,0.266017,-0.432677,0.999961,-0.007551,-0.004643,0.007525,0.999956,-0.005672,0.004685,0.005637,0.999973
05201,2,0,-56.0000,9.447837,0.197456,-2.756675,0.062673,-0.038244,0.030812,0.017557,-0.004983,0.000335,-0.257034,-0.452373,-0.245283,0.094479,0.001977,-0.027564,1.000000,0.000088,-0.000025,0.000002,0.999986,-0.002791,0.002363,-0.003696,-0.320846,0.269567,-0.424323,0.999962,-0.007406,-0.004705,0.007379,0.999957,-0.005600,0.004746,0.005565,0.999973
05202,2,0,-56.0000,9.422639,0.179769,-2.808401,0.006934,-0.019075,0.021190,0.019842,0.001364,0.002927,-0.262746,-0.454412,-0.249710,0.094226,0.001802,-0.028084,1.000000,0.000099,0.000007,0.000015,0.999987,-0.002742,0.002358,-0.003616,-0.315236,0.269012,-0.415071,0.999963,-0.007244,-0.004695,0.007218,0.999959,-0.005502,0.004735,0.005468,0.999974
05203,2,0,-56.0000,9.400829,0.175108,-2.738397,0.067722,-0.018745,-0.019826,0.020458,0.003900,0.003526,-0.258974,-0.454569,-0.251583,0.094008,0.001756,-0.027386,1.000000,0.000102,0.000020,0.000018,0.999987,-0.002689,0.002343,-0.003533,-0.309038,0.267410,-0.405555,0.999964,-0.007078,-0.004667,0.007053,0.999961,-0.005394,0.004705,0.005361,0.999975
05204,2,0,-57.0000,9.442624,0.169502,-2.734140,0.084083,-0.014171,0.018901,0.020661,-0.004271,0.002422,-0.257807,-0.457731,-0.246328,0.094427,0.001699,-0.027339,1.000000,0.000103,-0.000021,0.000012,0.999988,-0.002641,0.002366,-0.003446,-0.303549,0.270128,-0.395608,0.999965,-0.006905,-0.004715,0.006880,0.999962,-0.005298,0.004751,0.005265,0.999975
05205,2,0,-56.0000,9.431255,0.176443,-2.754661,0.061287,-0.021217,0.013994,0.021277,-0.001734,0.003021,-0.265761,-0.452773,-0.243733,0.094313,0.001769,-0.027546,1.000000,0.000106,-0.000009,0.000015,0.999988,-0.002587,0.002380,-0.003359,-0.297377,0.271764,-0.385612,0.999966,-0.006730,-0.004743,0.006705,0.999964,-0.005190,0.004778,0.005158,0.999975
05206,2,0,-56.0000,9.431180,0.175486,-2.754982,0.061318,-0.021357,0.013993,0.022162,-0.004254,0.004602,-0.264601,-0.453109,-0.248400,0.094312,0.001760,-0.027548,1.000000,0.000111,-0.000021,0.000023,0.999989,-0.002526,0.002402,-0.003268,-0.290313,0.274351,-0.375207,0.999967,-0.006548,-0.004788,0.006524,0.999966,-0.005067,0.004821,0.005035,0.999976
05207,2,0,-57.0000,9.431028,0.174462,-2.755566,0.061428,-0.021528,0.013992,0.025745,-0.007235,0.003120,-0.258173,-0.451079,-0.242403,0.094311,0.001750,-0.027552,1.000000,0.000129,-0.000036,0.000016,0.999989,-0.002464,0.002444,-0.003160,-0.283238,0.279144,-0.362819,0.999968,-0.006332,-0.004872,0.006308,0.999968,-0.004943,0.004903,0.004912,0.999976
05208,2,0,-56.0000,9.408162,0.228512,-2.751907,0.056792,-0.077026,-0.008119,0.023050,-0.006772,0.006181,-0.261455,-0.450725,-0.243218,0.094082,0.002291,-0.027516,1.000000,0.000115,-0.000034,0.000031,0.999989,-0.002394,0.002478,-0.003067,-0.275162,0.283148,-0.352101,0.999969,-0.006145,-0.004942,0.006121,0.999970,-0.004802,0.004971,0.004772,0.999976
05209,2,0,-57.0000,9.433327,0.165064,-2.790665,0.030391,-0.013266,0.026094,0.027249,-0.007217,0.005297,-0.261679,-0.457703,-0.256895,0.094334,0.001657,-0.027903,1.000000,0.000136,-0.000036,0.000026,0.999990,-0.002319,0.002519,-0.002955,-0.266643,0.287883,-0.339237,0.999970,-0.005921,-0.005024,0.005897,0.999972,-0.004654,0.005052,0.004624,0.999977
05210,2,0,-57.0000,9.433146,0.164006,-2.791338,0.030434,-0.013384,0.026093,0.019508,-0.006225,0.003301,-0.263391,-0.446324,-0.249520,0.094332,0.001644,-0.027910,1.000000,0.000098,-0.000031,0.000017,0.999990,-0.002269,0.002552,-0.002874,-0.260813,0.291683,-0.330039,0.999970,-0.005760,-0.005091,0.005737,0.999973,-0.004552,0.005117,0.004523,0.999977
05211,2,0,-57.0000,9.426798,0.235811,-2.790237,0.027557,-0.086543,0.020792,0.020186,-0.010103,0.009433,-0.263543,-0.452801,-0.238787,0.094269,0.002365,-0.027897,1.000000,0.000101,-0.000051,0.000047,0.999990,-0.002184,0.002606,-0.002802,-0.251126,0.297956,-0.321749,0.999971,-0.005615,-0.005200,0.005593,0.999975,-0.004383,0.005225,0.004354,0.999977
05212,2,0,-57.0000,9.438025,0.187149,-2.815354,0.009352,-0.038176,0.037998,0.012789,-0.001519,0.007051,-0.267694,-0.446375,-0.245963,0.094380,0.001877,-0.028153,1.000000,0.000064,-0.000008,0.000035,0.999991,-0.002125,0.002614,-0.002755,-0.244388,0.298873,-0.316353,0.999971,-0.005521,-0.005216,0.005499,0.999976,-0.004265,0.005240,0.004236,0.999977
05213,2,0,-58.0000,9.396224,0.190915,-2.819740,-0.006858,-0.043029,-0.000730,0.006000,0.000071,0.008721,-0.262053,-0.454274,-0.234390,0.093962,0.001914,-0.028197,1.000000,0.000030,0.000000,0.000044,0.999991,-0.002067,0.002618,-0.002749,-0.237637,0.299302,-0.315658,0.999971,-0.005509,-0.005224,0.005488,0.999976,-0.004147,0.005247,0.004119,0.999978
05214,2,0,-58.0000,9.430096,0.166687,-2.759235,0.061884,-0.022557,0.013987,0.003234,-0.002582,0.009703,-0.264421,-0.454960,-0.238019,0.094301,0.001672,-0.027591,1.000000,0.000016,-0.000013,0.000049,0.999991,-0.002008,0.002630,-0.002751,-0.230905,0.300688,-0.315848,0.999971,-0.005512,-0.005248,0.005491,0.999977,-0.004030,0.005270,0.004001,0.999978
05215,2,0,-58.0000,9.432722,0.158585,-2.793085,0.030814,-0.014163,0.026091,0.002246,-0.000742,0.010395,-0.265754,-0.452575,-0.248061,0.094327,0.001591,-0.027930,1.000000,0.000011,-0.000004,0.000052,0.999991,-0.001946,0.002637,-0.002765,-0.223837,0.301537,-0.317493,0.999971,-0.005541,-0.005263,0.005521,0.999977,-0.003907,0.005284,0.003877,0.999979
05216,2,0,-58.0000,9.441355,0.157168,-2.739255,0.084927,-0.015996,0.018891,0.001396,-0.000661,0.004455,-0.260398,-0.456953,-0.250910,0.094414,0.001574,-0.027392,1.000000,0.000007,-0.000003,0.000022,0.999991,-0.001916,0.002641,-0.002769,-0.220343,0.301971,-0.317927,0.999971,-0.005549,-0.005270,0.005529,0.999977,-0.003846,0.005292,0.003816,0.999979
05217,2,0,-58.0000,9.416068,0.178981,-2.746179,0.070401,-0.038472,-0.003027,-0.000519,-0.003394,0.011377,-0.257668,-0.450863,-0.243315,0.094161,0.001795,-0.027460,1.000000,-0.000003,-0.000017,0.000057,0.999991,-0.001853,0.002661,-0.002799,-0.213138,0.304311,-0.321272,0.999970,-0.005607,-0.005311,0.005587,0.999977,-0.003720,0.005332,0.003690,0.999979
05218,2,0,-58.0000,9.410737,0.152564,-2.723850,0.091668,-0.014107,-0.014932,0.000131,-0.003296,0.007617,-0.260144,-0.448773,-0.239023,0.094108,0.001529,-0.027237,1.000000,0.000001,-0.000016,0.000038,0.999991,-0.001809,0.002678,-0.002822,-0.208128,0.306296,-0.323894,0.999970,-0.005653,-0.005346,0.005634,0.999978,-0.003632,0.005366,0.003602,0.999979
05219,2,0,-58.0000,9.443773,0.147627,-2.773883,0.054013,-0.007901,0.030995,0.001016,-0.005814,0.009200,-0.268788,-0.451471,-0.246405,0.094438,0.001481,-0.027736,1.000000,0.000005,-0.000029,0.000046,0.999991,-0.001753,0.002711,-0.002841,-0.201814,0.310073,-0.326063,0.999969,-0.005691,-0.005412,0.005672,0.999978,-0.003522,0.005432,0.003491,0.999979
05220,2,0,-58.0000,9.407055,0.216748,-2.756639,0.057627,-0.078830,-0.008138,0.001016,-0.005814,0.009199,-0.262377,-0.444589,-0.243711,0.094071,0.002172,-0.027564,1.000000,0.000005,-0.000029,0.000046,0.999991,-0.001700,0.002739,-0.002853,-0.195723,0.313356,-0.327434,0.999969,-0.005715,-0.005469,0.005696,0.999978,-0.003416,0.005488,0.003385,0.999979
05221,2,0,-59.0000,9.418247,0.168431,-2.781687,0.039511,-0.030505,0.009076,-0.003180,-0.005366,0.010083,-0.254584,-0.450974,-0.243204,0.094183,0.001689,-0.027814,1.000000,-0.000016,-0.000027,0.000050,0.999991,-0.001647,0.002770,-0.002893,-0.189625,0.316850,-0.332047,0.999968,-0.005795,-0.005530,0.005777,0.999978,-0.003310,0.005549,0.003277,0.999979
05222,2,0,-59.0000,9.418119,0.167710,-2.782162,0.039549,-0.030632,0.009075,-0.008877,-0.004935,0.008786,-0.260698,-0.449984,-0.239878,0.094182,0.001680,-0.027819,1.000000,-0.000044,-0.000025,0.000044,0.999990,-0.001610,0.002795,-0.002960,-0.185436,0.319697,-0.339688,0.999967,-0.005929,-0.005580,0.005911,0.999977,-0.003236,0.005599,0.003203,0.999979
05223,2,0,-58.0000,9.417953,0.167016,-2.782766,0.039659,-0.030801,0.009074,-0.011746,-0.008265,0.012042,-0.255459,-0.456884,-0.250581,0.094181,0.001674,-0.027824,1.000000,-0.000059,-0.000041,0.000060,0.999990,-0.001559,0.002839,-0.003044,-0.179616,0.324794,-0.349348,0.999965,-0.006097,-0.005669,0.006079,0.999977,-0.003135,0.005688,0.003100,0.999979
05224,2,0,-58.0000,9.403781,0.181139,-2.770127,0.047970,-0.046369,-0.007940,-0.014408,-0.010237,0.010748,-0.258785,-0.456175,-0.241205,0.094039,0.001814,-0.027697,1.000000,-0.000072,-0.000051,0.000054,0.999990,-0.001519,0.002890,-0.003143,-0.175113,0.330648,-0.360643,0.999964,-0.006294,-0.005771,0.006277,0.999976,-0.003056,0.005790,0.003020,0.999979
05225,2,0,-58.0000,9.428799,0.157939,-2.764176,0.062721,-0.024239,0.013978,-0.014232,-0.006441,0.010554,-0.259365,-0.456589,-0.236199,0.094289,0.001582,-0.027639,1.000000,-0.000071,-0.000032,0.000053,0.999989,-0.001479,0.002926,-0.003237,-0.170559,0.334730,-0.371415,0.999962,-0.006482,-0.005842,0.006465,0.999975,-0.002977,0.005861,0.002939,0.999979
05226,2,0,-58.0000,9.431249,0.150231,-2.798515,0.031571,-0.015834,0.026086,-0.013789,-0.007701,0.011344,-0.257022,-0.460433,-0.245032,0.094313,0.001506,-0.027982,1.000000,-0.000069,-0.000039,0.000057,0.999989,-0.001434,0.002963,-0.003333,-0.165509,0.339034,-0.382474,0.999960,-0.006675,-0.005917,0.006658,0.999974,-0.002889,0.005936,0.002849,0.999978
05227,2,0,-58.0000,9.433675,0.182147,-2.788211,0.041631,-0.049065,0.025879,-0.011197,-0.008845,0.010555,-0.261143,-0.458099,-0.246364,0.094338,0.001825,-0.027878,1.000000,-0.000056,-0.000044,0.000053,0.999989,-0.001390,0.003011,-0.003413,-0.160405,0.344499,-0.391595,0.999959,-0.006834,-0.006013,0.006818,0.999973,-0.002800,0.006032,0.002758,0.999978
05228,2,0,-58.0000,9.416864,0.164041,-2.786627,0.039989,-0.031581,0.009070,-0.019452,-0.009703,0.005690,-0.257478,-0.449399,-0.242862,0.094170,0.001640,-0.027862,1.000000,-0.000097,-0.000049,0.000028,0.999988,-0.001381,0.003060,-0.003529,-0.159468,0.350146,-0.404840,0.999956,-0.007066,-0.006111,0.007049,0.999971,-0.002783,0.006131,0.002740,0.999977
05229,2,0,-58.0000,9.388693,0.154133,-2.805398,0.015506,-0.020986,-0.012642,-0.025866,-0.012484,0.006069,-0.262548,-0.453128,-0.243151,0.093889,0.001541,-0.028048,1.000000,-0.000129,-0.000062,0.000030,0.999987,-0.001378,0.003127,-0.003672,-0.159173,0.357772,-0.421328,0.999953,-0.007353,-0.006244,0.007336,0.999969,-0.002778,0.006264,0.002732,0.999977
05230,2,0,-58.0000,9.402344,0.179012,-2.775140,0.048398,-0.047317,-0.007947,-0.027395,-0.010063,0.008245,-0.262982,-0.451392,-0.242260,0.094025,0.001790,-0.027747,1.000000,-0.000137,-0.000050,0.000041,0.999987,-0.001368,0.003178,-0.003825,-0.158205,0.363514,-0.438806,0.999951,-0.007658,-0.006344,0.007641,0.999967,-0.002761,0.006365,0.002713,0.999976
05231,2,0,-58.0000,9.460461,0.191787,-2.774158,0.066516,-0.060448,0.047585,-0.028482,-0.008902,0.011211,-0.252706,-0.447839,-0.240703,0.094606,0.001919,-0.027738,1.000000,-0.000142,-0.000045,0.000056,0.999986,-0.001345,0.003225,-0.003988,-0.155601,0.368972,-0.457534,0.999947,-0.007985,-0.006440,0.007968,0.999965,-0.002716,0.006461,0.002664,0.999976
05232,2,0,-59.0000,9.484757,0.267489,-2.788776,0.056948,-0.135765,0.076082,-0.033115,-0.007190,0.011303,-0.260685,-0.450799,-0.247517,0.094848,0.002676,-0.027885,1.000000,-0.000166,-0.000036,0.000057,0.999985,-0.001330,0.003261,-0.004175,-0.153950,0.372998,-0.478879,0.999944,-0.008358,-0.006510,0.008340,0.999962,-0.002687,0.006532,0.002632,0.999975
05233,2,0,-59.0000,9.493325,0.266477,-2.735376,0.111143,-0.137648,0.068872,-0.048381,-0.005373,0.017012,-0.254602,-0.454895,-0.244471,0.094934,0.002666,-0.027352,1.000000,-0.000242,-0.000027,0.000085,0.999984,-0.001308,0.003289,-0.004441,-0.151530,0.376280,-0.509455,0.999939,-0.008891,-0.006567,0.008874,0.999957,-0.002645,0.006591,0.002586,0.999975
05234,2,0,-59.0000,9.446030,0.166341,-2.807054,0.033845,-0.034678,0.042888,-0.058904,-0.004584,0.020350,-0.254124,-0.461492,-0.242831,0.094461,0.001665,-0.028069,1.000000,-0.000295,-0.000023,0.000102,0.999982,-0.001287,0.003310,-0.004764,-0.149299,0.378626,-0.546451,0.999933,-0.009537,-0.006608,0.009520,0.999951,-0.002606,0.006633,0.002543,0.999975
05235,2,0,-59.0000,9.418724,0.057551,-2.804730,0.033616,0.073397,0.014604,-0.053099,-0.004337,0.019365,-0.263433,-0.453579,-0.242636,0.094188,0.000577,-0.028045,1.000000,-0.000265,-0.000022,0.000097,0.999981,-0.001261,0.003334,-0.005057,-0.146395,0.381259,-0.579992,0.999927,-0.010122,-0.006654,0.010106,0.999946,-0.002555,0.006680,0.002488,0.999975
05236,2,0,-59.0000,9.379525,0.094750,-2.798107,0.027265,0.035525,-0.024334,-0.039257,-0.003052,0.013556,-0.261831,-0.457312,-0.243617,0.093796,0.000948,-0.027980,1.000000,-0.000196,-0.000015,0.000068,0.999980,-0.001244,0.003348,-0.005276,-0.144548,0.382854,-0.605061,0.999922,-0.010560,-0.006682,0.010543,0.999941,-0.002523,0.006708,0.002452,0.999974
05237,2,0,-59.0000,9.387420,0.152482,-2.809743,0.016086,-0.022196,-0.012646,-0.032059,-0.003479,0.017029,-0.256817,-0.457832,-0.252472,0.093875,0.001528,-0.028096,1.000000,-0.000160,-0.000017,0.000085,0.999979,-0.001199,0.003367,-0.005464,-0.139464,0.385079,-0.626653,0.999918,-0.010937,-0.006721,0.010921,0.999937,-0.002434,0.006747,0.002360,0.999974
05238,2,0,-59.0000,9.451135,0.229774,-2.785740,0.054022,-0.101418,0.042458,-0.032497,-0.002217,0.016238,-0.256201,-0.457561,-0.247818,0.094511,0.002301,-0.027857,1.000000,-0.000162,-0.000011,0.000081,0.999978,-0.001160,0.003377,-0.005652,-0.135169,0.386199,-0.648171,0.999913,-0.011312,-0.006740,0.011297,0.999933,-0.002359,0.006767,0.002283,0.999975
05239,2,0,-59.0000,9.442498,0.269531,-2.794870,0.041159,-0.141510,0.037337,-0.044178,-0.003381,0.020455,-0.264317,-0.455512,-0.243649,0.094425,0.002699,-0.027948,1.000000,-0.000221,-0.000017,0.000102,0.999976,-0.001116,0.003395,-0.005904,-0.130216,0.388281,-0.676977,0.999907,-0.011815,-0.006777,0.011800,0.999928,-0.002273,0.006803,0.002192,0.999974
05240,2,0,-59.0000,9.403851,0.168263,-2.812764,0.017951,-0.040249,0.004157,-0.056295,-0.003281,0.023881,-0.259073,-0.451595,-0.247991,0.094039,0.001686,-0.028127,1.000000,-0.000281,-0.000016,0.000119,0.999974,-0.001075,0.003408,-0.006215,-0.125626,0.389778,-0.712578,0.999900,-0.012436,-0.006803,0.012422,0.999920,-0.002193,0.006830,0.002108,0.999974
05241,2,0,-59.0000,9.409646,0.094544,-2.815369,0.021092,0.032566,0.009490,-0.057987,-0.004656,0.026235,-0.258283,-0.467471,-0.244915,0.094097,0.000950,-0.028152,1.000000,-0.000290,-0.000023,0.000131,0.999972,-0.001023,0.003432,-0.006541,-0.119764,0.392451,-0.749917,0.999891,-0.013088,-0.006850,0.013074,0.999912,-0.002090,0.006876,0.002000,0.999974
05242,2,0,-60.0000,9.404274,0.068020,-2.793136,0.042364,0.056921,-0.002409,-0.049425,-0.001765,0.024284,-0.264917,-0.446205,-0.243472,0.094043,0.000685,-0.027931,1.000000,-0.000247,-0.000009,0.000121,0.999970,-0.000970,0.003437,-0.006821,-0.113824,0.393106,-0.782074,0.999883,-0.013649,-0.006861,0.013636,0.999905,-0.001987,0.006887,0.001893,0.999974
05243,2,0,-60.0000,9.423938,-0.020616,-2.809294,0.037250,0.145168,0.019948,-0.030969,-0.002202,0.018395,-0.256928,-0.452879,-0.246586,0.094240,-0.000202,-0.028092,1.000000,-0.000155,-0.000011,0.000092,0.999969,-0.000917,0.003450,-0.007007,-0.107842,0.394582,-0.803277,0.999878,-0.014019,-0.006887,0.014006,0.999900,-0.001882,0.006912,0.001785,0.999975
05244,2,0,-59.0000,9.412758,0.025898,-2.784565,0.055480,0.096558,0.002713,-0.017147,-0.000924,0.012604,-0.259100,-0.457667,-0.244675,0.094128,0.000263,-0.027845,1.000000,-0.000086,-0.000005,0.000063,0.999968,-0.000875,0.003453,-0.007108,-0.103101,0.395008,-0.814905,0.999875,-0.014222,-0.006894,0.014210,0.999897,-0.001799,0.006919,0.001701,0.999975
05245,2,0,-60.0000,9.418066,0.050978,-2.807064,0.034357,0.071901,0.014613,-0.009114,0.000115,0.007786,-0.261279,-0.459581,-0.248360,0.094181,0.000512,-0.028071,1.000000,-0.000046,0.000001,0.000039,0.999968,-0.000842,0.003457,-0.007173,-0.099364,0.395415,-0.822364,0.999873,-0.014352,-0.006901,0.014340,0.999896,-0.001734,0.006925,0.001635,0.999975
05246,2,0,-59.0000,9.423599,0.115663,-2.784361,0.054268,0.005642,0.014178,-0.007853,0.002757,0.004638,-0.253232,-0.454762,-0.250219,0.094236,0.001158,-0.027845,1.000000,-0.000039,0.000014,0.000023,0.999968,-0.000825,0.003444,-0.007223,-0.097430,0.393942,-0.828030,0.999872,-0.014451,-0.006876,0.014440,0.999894,-0.001700,0.006899,0.001601,0.999975
05247,2,0,-59.0000,9.431735,0.173734,-2.795301,0.043080,-0.052081,0.025857,-0.013099,0.001943,0.004124,-0.256285,-0.457957,-0.239395,0.094317,0.001737,-0.027954,1.000000,-0.000065,0.000010,0.000021,0.999967,-0.000816,0.003439,-0.007302,-0.096398,0.393379,-0.837075,0.999870,-0.014609,-0.006866,0.014598,0.999892,-0.001682,0.006890,0.001582,0.999975
05248,2,0,-60.0000,9.395807,0.105913,-2.801766,0.029827,0.016116,-0.007528,-0.014058,0.001360,0.000460,-0.259344,-0.457160,-0.243840,0.093958,0.001057,-0.028018,1.000000,-0.000070,0.000007,0.000002,0.999967,-0.000827,0.003434,-0.007383,-0.097725,0.392830,-0.846331,0.999867,-0.014770,-0.006856,0.014759,0.999890,-0.001706,0.006881,0.001604,0.999975
05249,2,0,-60.0000,9.420975,0.083454,-2.795225,0.044593,0.038231,0.014396,-0.013175,-0.001166,0.002031,-0.254598,-0.458601,-0.248290,0.094210,0.000834,-0.027952,1.000000,-0.000066,-0.000006,0.000010,0.999966,-0.000828,0.003445,-0.007459,-0.097789,0.394093,-0.855102,0.999865,-0.014923,-0.006878,0.014912,0.999887,-0.001707,0.006903,0.001604,0.999975
05250,2,0,-60.0000,9.423729,0.116024,-2.783903,0.054568,0.005033,0.014176,-0.008912,0.001488,0.003244,-0.259603,-0.454403,-0.238165,0.094237,0.001161,-0.027840,1.000000,-0.000045,0.000007,0.000016,0.999966,-0.000819,0.003439,-0.007516,-0.096757,0.393403,-0.861612,0.999863,-0.015037,-0.006866,0.015026,0.999886,-0.001689,0.006891,0.001585,0.999975
05251,2,0,-60.0000,9.437614,0.101160,-2.797473,0.046421,0.020294,0.031197,0.002042,-0.000571,0.000695,-0.250544,-0.458937,-0.243121,0.094376,0.001012,-0.027974,1.000000,0.000010,-0.000003,0.000003,0.999965,-0.000804,0.003448,-0.007518,-0.095046,0.394369,-0.861798,0.999863,-0.015040,-0.006883,0.015029,0.999886,-0.001659,0.006907,0.001555,0.999975
05252,2,0,-60.0000,9.412659,0.163225,-2.758817,0.072900,-0.043786,-0.003068,0.000720,0.003219,-0.001662,-0.259706,-0.455742,-0.249586,0.094126,0.001632,-0.027590,1.000000,0.000004,0.000016,-0.000008,0.999965,-0.000804,0.003434,-0.007524,-0.095039,0.392764,-0.862559,0.999863,-0.015054,-0.006855,0.015043,0.999885,-0.001659,0.006879,0.001555,0.999975
05253,2,0,-60.0000,9.415288,0.156452,-2.792383,0.041838,-0.035375,0.009050,0.001602,0.000692,-0.000090,-0.249320,-0.457519,-0.243481,0.094153,0.001565,-0.027924,1.000000,0.000008,0.000003,-0.000000,0.999965,-0.000793,0.003436,-0.007527,-0.093858,0.393023,-0.862851,0.999863,-0.015059,-0.006859,0.015048,0.999885,-0.001638,0.006883,0.001535,0.999975
05254,2,0,-60.0000,9.401461,0.171251,-2.778620,0.050137,-0.050936,-0.007973,-0.003025,0.002411,0.000003,-0.256106,-0.458734,-0.243011,0.094014,0.001712,-0.027787,1.000000,-0.000015,0.000012,0.000000,0.999965,-0.000792,0.003426,-0.007554,-0.093666,0.391912,-0.865934,0.999862,-0.015112,-0.006840,0.015102,0.999885,-0.001635,0.006864,0.001531,0.999975
05255,2,0,-60.0000,9.429278,0.141724,-2.805592,0.033735,-0.020243,0.026071,-0.003566,0.002988,0.001488,-0.257260,-0.451379,-0.244453,0.094292,0.001417,-0.028057,1.000000,-0.000018,0.000015,0.000007,0.999965,-0.000782,0.003417,-0.007583,-0.092523,0.390818,-0.869305,0.999862,-0.015171,-0.006821,0.015161,0.999884,-0.001615,0.006845,0.001511,0.999975
05256,2,0,-60.0000,9.429371,0.141746,-2.805277,0.033770,-0.020376,0.026070,-0.005608,0.003559,0.000792,-0.250967,-0.459227,-0.248849,0.094293,0.001417,-0.028054,1.000000,-0.000028,0.000018,0.000004,0.999965,-0.000780,0.003400,-0.007620,-0.092322,0.388976,-0.873535,0.999861,-0.015245,-0.006789,0.015235,0.999883,-0.001611,0.006813,0.001508,0.999976
05257,2,0,-60.0000,9.390446,0.179389,-2.797804,0.027472,-0.058257,-0.012880,-0.007650,0.004130,0.000097,-0.252926,-0.459641,-0.248527,0.093904,0.001793,-0.027980,1.000000,-0.000038,0.000021,0.000000,0.999965,-0.000782,0.003386,-0.007667,-0.092641,0.387255,-0.878919,0.999860,-0.015339,-0.006759,0.015328,0.999881,-0.001617,0.006783,0.001513,0.999976
05258,2,0,-60.0000,9.418925,0.090546,-2.759680,0.076412,0.028291,0.002278,-0.005708,0.002872,0.003062,-0.257120,-0.454389,-0.251365,0.094189,0.000906,-0.027598,1.000000,-0.000029,0.000014,0.000015,0.999964,-0.000770,0.003373,-0.007716,-0.091224,0.385861,-0.884460,0.999858,-0.015436,-0.006734,0.015425,0.999880,-0.001592,0.006758,0.001488,0.999976
05259,2,0,-60.0000,9.418391,0.149968,-2.824354,0.011125,-0.027694,0.021166,-0.005507,0.004246,-0.001478,-0.258158,-0.453708,-0.236808,0.094183,0.001498,-0.028246,1.000000,-0.000028,0.000021,-0.000007,0.999964,-0.000777,0.003358,-0.007750,-0.092054,0.384109,-0.888411,0.999857,-0.015505,-0.006704,0.015494,0.999879,-0.001607,0.006728,0.001502,0.999976
05260,2,0,-60.0000,9.399420,0.178484,-2.743012,0.081748,-0.060422,-0.020102,-0.006328,0.000340,0.002453,-0.257596,-0.453828,-0.246135,0.093994,0.001785,-0.027430,1.000000,-0.000032,0.000002,0.000012,0.999964,-0.000768,0.003358,-0.007791,-0.091020,0.384067,-0.893082,0.999856,-0.015586,-0.006703,0.015576,0.999877,-0.001589,0.006727,0.001484,0.999976
05261,2,0,-60.0000,9.455127,0.158686,-2.752235,0.089943,-0.040523,0.035646,-0.007750,0.003443,0.002366,-0.254976,-0.457625,-0.249706,0.094551,0.001587,-0.027524,1.000000,-0.000039,0.000017,0.000012,0.999963,-0.000760,0.003346,-0.007842,-0.090097,0.382688,-0.898892,0.999855,-0.015688,-0.006679,0.015677,0.999876,-0.001572,0.006703,0.001468,0.999976
05262,2,0,-60.0000,9.421364,0.182437,-2.812290,0.021237,-0.061179,0.020937,-0.006249,0.003448,0.004546,-0.257494,-0.454803,-0.245656,0.094213,0.001826,-0.028125,1.000000,-0.000031,0.000017,0.000023,0.999963,-0.000742,0.003330,-0.007887,-0.088021,0.380875,-0.904067,0.999853,-0.015778,-0.006647,0.015768,0.999874,-0.001536,0.006671,0.001431,0.999977
05263,2,0,-60.0000,9.443896,0.127036,-2.816696,0.026085,-0.006006,0.043092,-0.004547,0.004828,0.002186,-0.251422,-0.458449,-0.246171,0.094438,0.001271,-0.028169,1.000000,-0.000023,0.000024,0.000011,0.999963,-0.000730,0.003311,-0.007922,-0.086695,0.378711,-0.908077,0.999853,-0.015848,-0.006610,0.015838,0.999873,-0.001513,0.006633,0.001408,0.999977
05264,2,0,-60.0000,9.430146,0.141683,-2.802675,0.034378,-0.021567,0.026066,-0.004106,0.003564,0.002971,-0.254555,-0.466155,-0.246267,0.094301,0.001418,-0.028028,1.000000,-0.000021,0.000018,0.000015,0.999963,-0.000716,0.003295,-0.007958,-0.085068,0.376865,-0.912187,0.999852,-0.015920,-0.006577,0.015910,0.999872,-0.001485,0.006600,0.001380,0.999977
05265,2,0,-60.0000,9.407719,0.157758,-2.842452,-0.011346,-0.035424,0.016260,-0.014315,0.006422,-0.000508,-0.258818,-0.466242,-0.246030,0.094076,0.001575,-0.028428,1.000000,-0.000072,0.000032,-0.000003,0.999962,-0.000732,0.003268,-0.008036,-0.086867,0.373839,-0.921121,0.999849,-0.016076,-0.006525,0.016066,0.999870,-0.001516,0.006548,0.001411,0.999978
05266,2,0,-60.0000,9.400060,0.139186,-2.785359,0.041102,-0.019679,-0.007758,-0.017800,0.012518,0.003072,-0.253857,-0.452962,-0.243927,0.093999,0.001391,-0.027860,1.000000,-0.000089,0.000063,0.000015,0.999961,-0.000738,0.003207,-0.008137,-0.087520,0.366832,-0.932728,0.999847,-0.016278,-0.006402,0.016269,0.999866,-0.001527,0.006426,0.001423,0.999978
05267,2,0,-60.0000,9.416864,0.117752,-2.831596,0.001795,0.004169,0.021392,-0.019502,0.011139,0.005430,-0.253838,-0.446347,-0.242151,0.094167,0.001177,-0.028321,1.000000,-0.000098,0.000056,0.000027,0.999961,-0.000733,0.003156,-0.008248,-0.087016,0.360971,-0.945439,0.999844,-0.016500,-0.006300,0.016491,0.999863,-0.001519,0.006324,0.001415,0.999979
05268,2,0,-60.0000,9.442487,0.134668,-2.778915,0.057590,-0.015340,0.030966,-0.018215,0.011363,-0.002079,-0.254287,-0.450757,-0.244819,0.094423,0.001343,-0.027795,1.000000,-0.000091,0.000057,-0.000010,0.999960,-0.000766,0.003102,-0.008342,-0.090685,0.354734,-0.956229,0.999842,-0.016688,-0.006191,0.016679,0.999860,-0.001583,0.006217,0.001479,0.999980
05269,2,0,-60.0000,9.445580,0.167782,-2.766356,0.067620,-0.048581,0.030734,-0.019736,0.013779,0.000102,-0.252749,-0.460843,-0.246034,0.094454,0.001675,-0.027670,1.000000,-0.000099,0.000069,0.000001,0.999959,-0.000788,0.003039,-0.008446,-0.093192,0.347476,-0.968189,0.999839,-0.016897,-0.006065,0.016887,0.999856,-0.001626,0.006091,0.001524,0.999980
05270,2,0,-60.0000,9.462581,0.186002,-2.767314,0.069335,-0.066352,0.047528,-0.009766,0.013560,-0.001740,-0.255343,-0.458960,-0.238655,0.094624,0.001858,-0.027680,1.000000,-0.000049,0.000068,-0.000009,0.999959,-0.000806,0.002974,-0.008503,-0.095291,0.340008,-0.974637,0.999838,-0.017010,-0.005934,0.017000,0.999854,-0.001663,0.005962,0.001562,0.999981
05271,2,0,-61.0000,9.454903,0.128259,-2.754807,0.080769,-0.008974,0.035866,-0.003259,0.017016,-0.004365,-0.247375,-0.454431,-0.245071,0.094547,0.001280,-0.027556,1.000000,-0.000016,0.000085,-0.000022,0.999959,-0.000827,0.002896,-0.008522,-0.097594,0.331009,-0.976795,0.999838,-0.017047,-0.005777,0.017038,0.999853,-0.001703,0.005805,0.001605,0.999982
05272,2,0,-61.0000,9.441339,0.104285,-2.784757,0.047972,0.017109,0.031196,0.005651,0.015529,-0.007601,-0.253810,-0.458518,-0.237833,0.094411,0.001040,-0.027855,1.000000,0.000028,0.000078,-0.000038,0.999960,-0.000851,0.002822,-0.008499,-0.100309,0.322538,-0.974252,0.999840,-0.017003,-0.005629,0.016993,0.999854,-0.001751,0.005658,0.001655,0.999983
05273,2,0,-60.0000,9.388717,0.117678,-2.807720,0.008819,0.005472,-0.012431,0.003406,0.014725,-0.003760,-0.260481,-0.462311,-0.249613,0.093885,0.001175,-0.028084,1.000000,0.000017,0.000074,-0.000019,0.999960,-0.000859,0.002755,-0.008487,-0.101133,0.314844,-0.972860,0.999841,-0.016979,-0.005495,0.016969,0.999854,-0.001765,0.005524,0.001672,0.999983
05274,2,0,-60.0000,9.383309,0.190772,-2.803842,0.005769,-0.067651,-0.017801,-0.000440,0.013228,0.000170,-0.253973,-0.461519,-0.244911,0.093831,0.001908,-0.028045,1.000000,-0.000002,0.000066,0.000001,0.999960,-0.000855,0.002691,-0.008498,-0.100556,0.307476,-0.974124,0.999841,-0.017001,-0.005366,0.016991,0.999854,-0.001755,0.005395,0.001664,0.999984
05275,2,0,-60.0000,9.422896,0.192904,-2.764297,0.053385,-0.071787,0.008795,-0.017848,0.018956,-0.002443,-0.248143,-0.456249,-0.257824,0.094226,0.001925,-0.027652,1.000000,-0.000089,0.000095,-0.000012,0.999959,-0.000887,0.002602,-0.008590,-0.104245,0.297310,-0.984597,0.999839,-0.017183,-0.005189,0.017174,0.999851,-0.001819,0.005220,0.001730,0.999985
05276,2,0,-59.0000,9.431904,0.152836,-2.753853,0.066445,-0.031996,0.013931,-0.015573,0.015743,0.003579,-0.257546,-0.450928,-0.248949,0.094317,0.001528,-0.027546,1.000000,-0.000078,0.000079,0.000018,0.999959,-0.000890,0.002526,-0.008685,-0.104500,0.288562,-0.995533,0.999836,-0.017374,-0.005036,0.017365,0.999848,-0.001824,0.005067,0.001736,0.999986
05277,2,0,-59.0000,9.462908,0.155905,-2.768054,0.059980,-0.034380,0.047753,-0.011207,0.019084,0.002529,-0.250396,-0.458647,-0.238329,0.094626,0.001559,-0.027690,1.000000,-0.000056,0.000095,0.000013,0.999958,-0.000890,0.002436,-0.008752,-0.104370,0.278219,-1.003157,0.999835,-0.017507,-0.004856,0.017499,0.999845,-0.001822,0.004887,0.001736,0.999987
05278,2,0,-58.0000,9.435637,0.185333,-2.739029,0.076506,-0.065373,0.013693,-0.005524,0.018632,0.003836,-0.255845,-0.462974,-0.250213,0.094354,0.001854,-0.027399,1.000000,-0.000028,0.000093,0.000019,0.999958,-0.000876,0.002344,-0.008794,-0.102795,0.267704,-1.007994,0.999834,-0.017592,-0.004672,0.017584,0.999844,-0.001794,0.004703,0.001712,0.999987
05279,2,0,-58.0000,9.466690,0.188048,-2.753085,0.070040,-0.067758,0.047513,-0.006065,0.019208,0.005319,-0.257720,-0.456456,-0.241009,0.094664,0.001882,-0.027540,1.000000,-0.000030,0.000096,0.000027,0.999958,-0.000855,0.002252,-0.008840,-0.100289,0.257235,-1.013243,0.999834,-0.017683,-0.004490,0.017676,0.999842,-0.001750,0.004520,0.001671,0.999988
05280,262146,0,-58.0000,9.453284,0.163355,-2.782706,0.037244,-0.041655,0.042849,-0.002215,0.020706,0.001390,-0.252348,-0.458909,-0.246661,0.094530,0.001634,-0.027837,1.000000,-0.000011,0.000104,0.000007,0.999958,-0.000850,0.002151,-0.008861,-0.099545,0.245581,-1.015603,0.999834,-0.017725,-0.004286,0.017717,0.999842,-0.001737,0.004316,0.001661,0.999989
05281,2,0,-58.0000,9.403896,0.070504,-2.819299,-0.008731,0.052770,0.004838,0.001657,0.018183,0.007326,-0.245419,-0.457920,-0.244883,0.094036,0.000709,-0.028202,1.000000,0.000008,0.000091,0.000037,0.999958,-0.000808,0.002064,-0.008873,-0.094648,0.235663,-1.016939,0.999834,-0.017748,-0.004113,0.017741,0.999841,-0.001652,0.004142,0.001579,0.999990
05282,2,0,-58.0000,9.376556,0.060283,-2.835495,-0.033265,0.063446,-0.016854,0.006593,0.018530,0.000431,-0.250792,-0.452078,-0.242284,0.093763,0.000604,-0.028364,1.000000,0.000033,0.000093,0.000002,0.999958,-0.000794,0.001974,-0.008861,-0.092930,0.225371,-1.015559,0.999835,-0.017724,-0.003933,0.017718,0.999842,-0.001622,0.003962,0.001552,0.999991
05283,2,0,-59.0000,9.466456,0.055680,-2.737513,0.084784,0.062151,0.041237,0.007679,0.017379,-0.002536,-0.259918,-0.457423,-0.247488,0.094662,0.000557,-0.027383,1.000000,0.000038,0.000087,-0.000013,0.999959,-0.000790,0.001893,-0.008830,-0.092441,0.216134,-1.011998,0.999837,-0.017662,-0.003772,0.017656,0.999843,-0.001613,0.003800,0.001547,0.999992
05284,2,0,-59.0000,9.466545,0.076379,-2.845721,-0.021670,0.047911,0.072487,0.007662,0.021400,-0.012402,-0.257156,-0.453837,-0.245501,0.094662,0.000759,-0.028467,1.000000,0.000038,0.000107,-0.000062,0.999959,-0.000837,0.001791,-0.008783,-0.097706,0.204406,-1.006683,0.999839,-0.017569,-0.003568,0.017563,0.999844,-0.001705,0.003597,0.001642,0.999992
05285,2,0,-60.0000,9.408778,0.103713,-2.800655,0.001493,0.019097,0.004601,0.018693,0.022449,-0.012836,-0.254290,-0.456189,-0.250162,0.094085,0.001034,-0.028017,1.000000,0.000093,0.000112,-0.000064,0.999960,-0.000868,0.001688,-0.008685,-0.101173,0.192502,-0.995367,0.999843,-0.017371,-0.003360,0.017366,0.999848,-0.001766,0.003390,0.001707,0.999993
05286,2,0,-60.0000,9.381552,0.055736,-2.861616,-0.064119,0.071466,-0.004718,0.026323,0.022338,-0.022785,-0.262369,-0.456553,-0.242950,0.093812,0.000550,-0.028627,1.000000,0.000132,0.000112,-0.000114,0.999962,-0.000939,0.001583,-0.008534,-0.109162,0.180518,-0.978059,0.999849,-0.017069,-0.003151,0.017063,0.999853,-0.001905,0.003183,0.001851,0.999993
05287,2,0,-60.0000,9.427169,-0.053427,-2.868788,-0.054461,0.181963,0.039634,0.079793,0.027814,-0.036821,-0.255410,-0.454362,-0.242961,0.094268,-0.000540,-0.028701,1.000000,0.000399,0.000139,-0.000184,0.999966,-0.001000,0.001458,-0.008108,-0.115924,0.166137,-0.929242,0.999864,-0.016218,-0.002900,0.016212,0.999867,-0.002023,0.002932,0.001976,0.999994
05288,2,0,-60.0000,9.430932,-0.000396,-2.699746,0.103043,0.121190,-0.004232,0.088735,0.026337,-0.040065,-0.254255,-0.453685,-0.244319,0.094306,-0.000011,-0.027010,1.000000,0.000444,0.000132,-0.000200,0.999969,-0.001065,0.001337,-0.007630,-0.123191,0.152240,-0.874484,0.999880,-0.015262,-0.002657,0.015256,0.999881,-0.002150,0.002690,0.002109,0.999994
05289,2,0,-59.0000,9.427999,0.166088,-2.748595,0.044523,-0.040813,0.009017,0.087483,0.027714,-0.046815,-0.261382,-0.457864,-0.248075,0.094277,0.001651,-0.027498,1.000000,0.000437,0.000139,-0.000234,0.999973,-0.001163,0.001214,-0.007153,-0.134206,0.138159,-0.819822,0.999895,-0.014308,-0.002411,0.014302,0.999895,-0.002342,0.002445,0.002308,0.999994
05290,2,0,-59.0000,9.470077,0.222326,-2.806668,-0.004515,-0.092107,0.066617,0.083396,0.031288,-0.043881,-0.254846,-0.450214,-0.241600,0.094697,0.002214,-0.028081,1.000000,0.000417,0.000156,-0.000219,0.999976,-0.001255,0.001069,-0.006698,-0.144614,0.121580,-0.767682,0.999908,-0.013398,-0.002122,0.013393,0.999907,-0.002524,0.002156,0.002495,0.999995
05291,2,0,-58.0000,9.465158,0.277665,-2.691519,0.098977,-0.151153,0.029972,0.052958,0.030072,-0.041288,-0.260201,-0.454928,-0.243587,0.094648,0.002764,-0.026929,1.000000,0.000265,0.000150,-0.000206,0.999978,-0.001375,0.000934,-0.006394,-0.158295,0.105999,-0.732867,0.999916,-0.012791,-0.001850,0.012785,0.999914,-0.002763,0.001885,0.002739,0.999994
05292,2,0,-59.0000,9.404657,0.254301,-2.812295,-0.035407,-0.119279,0.005956,0.046085,0.030988,-0.037376,-0.260874,-0.457920,-0.251533,0.094043,0.002532,-0.028137,1.000000,0.000230,0.000155,-0.000187,0.999980,-0.001489,0.000789,-0.006128,-0.171183,0.089384,-0.702400,0.999924,-0.012259,-0.001560,0.012254,0.999920,-0.002988,0.001597,0.002968,0.999994
05293,2,0,-59.0000,9.483833,0.181495,-2.822892,-0.022404,-0.044080,0.083892,0.066146,0.033697,-0.038961,-0.260662,-0.462698,-0.240653,0.094834,0.001806,-0.028244,1.000000,0.000331,0.000168,-0.000195,0.999982,-0.001581,0.000635,-0.005764,-0.181538,0.071713,-0.660677,0.999933,-0.011531,-0.001252,0.011527,0.999929,-0.003168,0.001288,0.003154,0.999994
05294,2,0,-59.0000,9.429683,0.104115,-2.790220,-0.006108,0.033195,0.021638,0.098981,0.038865,-0.043355,-0.258868,-0.456194,-0.243216,0.094292,0.001035,-0.027920,1.000000,0.000495,0.000194,-0.000217,0.999985,-0.001649,0.000452,-0.005236,-0.189280,0.050841,-0.600046,0.999945,-0.010473,-0.000887,0.010470,0.999940,-0.003304,0.000922,0.003294,0.999994
05295,2,0,-60.0000,9.478173,0.107218,-2.694002,0.095594,0.027254,0.040993,0.101426,0.049901,-0.052959,-0.261779,-0.457013,-0.238288,0.094775,0.001061,-0.026963,1.000000,0.000507,0.000250,-0.000265,0.999987,-0.001762,0.000220,-0.004682,-0.201971,0.024283,-0.536533,0.999956,-0.009364,-0.000424,0.009363,0.999950,-0.003525,0.000457,0.003521,0.999994
05296,2,0,-60.0000,9.458157,0.005797,-2.863994,-0.073397,0.138483,0.068338,0.171283,0.056717,-0.064727,-0.265590,-0.453749,-0.243020,0.094573,0.000052,-0.028667,1.000000,0.000856,0.000284,-0.000324,0.999991,-0.001834,-0.000047,-0.003776,-0.210102,-0.006213,-0.432730,0.999971,-0.007552,0.000108,0.007553,0.999965,-0.003667,-0.000081,0.003668,0.999993
05297,2,0,-61.0000,9.511084,0.156033,-2.389119,0.384278,-0.030465,-0.012465,0.144280,0.068628,-0.082368,-0.265788,-0.460373,-0.246270,0.095103,0.001538,-0.023923,1.000000,0.000721,0.000343,-0.000412,0.999993,-0.002030,-0.000367,-0.002974,-0.232486,-0.042719,-0.340744,0.999982,-0.005947,0.000746,0.005950,0.999974,-0.004058,-0.000721,0.004062,0.999991
05298,2,0,-59.0000,9.565425,0.186594,-2.578835,0.210597,-0.047360,0.093672,0.111158,0.059828,-0.087542,-0.262239,-0.455632,-0.247823,0.095647,0.001838,-0.025816,1.000000,0.000556,0.000299,-0.000438,0.999994,-0.002298,-0.000645,-0.002320,-0.263109,-0.074549,-0.265667,0.999988,-0.004637,0.001301,0.004643,0.999979,-0.004592,-0.001280,0.004598,0.999989
05299,2,0,-58.0000,9.522169,0.223713,-2.654424,0.119014,-0.074833,0.074069,0.075562,0.062352,-0.097680,-0.257801,-0.452617,-0.247857,0.095214,0.002201,-0.026573,1.000000,0.000378,0.000312,-0.000488,0.999994,-0.002663,-0.000931,-0.001826,-0.304937,-0.107206,-0.208994,0.999992,-0.003648,0.001871,0.003658,0.999979,-0.005322,-0.001852,0.005329,0.999984
05300,2,0,-57.0000,9.487691,0.221505,-2.720766,0.040396,-0.062358,0.059616,0.032160,0.057891,-0.090011,-0.262642,-0.458776,-0.246177,0.094870,0.002177,-0.027235,1.000000,0.000161,0.000289,-0.000450,0.999993,-0.003054,-0.001199,-0.001557,-0.349706,-0.137911,-0.177961,0.999992,-0.003106,0.002407,0.003121,0.999977,-0.006103,-0.002388,0.006111,0.999978
05301,2,0,-56.0000,9.401448,0.133529,-2.791218,-0.053056,0.036102,-0.004945,0.021361,0.058151,-0.094162,-0.265541,-0.445933,-0.243034,0.094007,0.001294,-0.027939,1.000000,0.000107,0.000291,-0.000471,0.999992,-0.003477,-0.001464,-0.001328,-0.398261,-0.168347,-0.151639,0.999992,-0.002647,0.002938,0.002667,0.999972,-0.006951,-0.002920,0.006959,0.999972
05302,2,0,-56.0000,9.434340,0.105250,-2.845769,-0.100638,0.075428,0.041267,0.021809,0.063317,-0.098962,-0.270900,-0.451903,-0.248329,0.094335,0.001009,-0.028487,1.000000,0.000109,0.000317,-0.000495,0.999990,-0.003926,-0.001759,-0.001091,-0.449704,-0.202017,-0.124193,0.999991,-0.002168,0.003526,0.002195,0.999967,-0.007849,-0.003509,0.007856,0.999963
05303,2,0,-57.0000,9.446570,0.146556,-2.774302,-0.036549,0.040399,0.033780,0.025332,0.075627,-0.107244,-0.266302,-0.458187,-0.249173,0.094456,0.001418,-0.027779,1.000000,0.000127,0.000378,-0.000536,0.999988,-0.004411,-0.002109,-0.000824,-0.505214,-0.242092,-0.093331,0.999990,-0.001629,0.004225,0.001666,0.999960,-0.008817,-0.004211,0.008824,0.999952
05304,2,0,-58.0000,9.568590,0.288575,-2.695583,0.060377,-0.093669,0.131906,0.022828,0.080747,-0.116443,-0.267594,-0.452736,-0.246502,0.095677,0.002833,-0.026994,1.000000,0.000114,0.000404,-0.000582,0.999985,-0.004945,-0.002487,-0.000551,-0.566554,-0.285272,-0.061742,0.999987,-0.001078,0.004979,0.001127,0.999950,-0.009888,-0.004968,0.009893,0.999939
05305,2,0,-58.0000,9.627452,0.335010,-2.529814,0.226054,-0.134499,0.143759,0.004408,0.095454,-0.136114,-0.267426,-0.448101,-0.246551,0.096265,0.003285,-0.025344,1.000000,0.000022,0.000477,-0.000681,0.999980,-0.005601,-0.002931,-0.000343,-0.641728,-0.336077,-0.037393,0.999983,-0.000653,0.005866,0.000718,0.999937,-0.011200,-0.005858,0.011204,0.999920
05306,2,0,-58.0000,9.647882,0.399216,-2.511993,0.237649,-0.185363,0.160288,-0.032686,0.093849,-0.138621,-0.264033,-0.445422,-0.258747,0.096470,0.003921,-0.025166,1.000000,-0.000163,0.000469,-0.000693,0.999974,-0.006322,-0.003371,-0.000306,-0.724373,-0.386532,-0.032622,0.999977,-0.000569,0.006746,0.000655,0.999920,-0.012642,-0.006738,0.012646,0.999897
05307,2,0,-59.0000,9.593790,0.321000,-2.594483,0.137636,-0.089117,0.129560,-0.065614,0.095094,-0.149672,-0.271053,-0.450439,-0.249047,0.095928,0.003130,-0.025991,1.000000,-0.000328,0.000475,-0.000748,0.999967,-0.007141,-0.003813,-0.000415,-0.818095,-0.437255,-0.044428,0.999971,-0.000775,0.007631,0.000884,0.999898,-0.014278,-0.007620,0.014284,0.999869
05308,2,0,-59.0000,9.424372,0.104117,-2.782525,-0.090468,0.149762,0.012862,-0.077887,0.097750,-0.151759,-0.270361,-0.456051,-0.245942,0.094231,0.000959,-0.027872,1.000000,-0.000389,0.000489,-0.000759,0.999959,-0.007990,-0.004271,-0.000576,-0.915335,-0.489912,-0.062076,0.999963,-0.001083,0.008550,0.001220,0.999872,-0.015974,-0.008532,0.015984,0.999836
05309,2,0,-59.0000,9.359818,-0.037245,-2.941356,-0.264341,0.313966,-0.010103,-0.073650,0.097553,-0.162441,-0.263962,-0.450670,-0.246553,0.093583,-0.000459,-0.029459,0.999999,-0.000368,0.000488,-0.000812,0.999949,-0.008881,-0.004722,-0.000705,-1.017381,-0.541847,-0.076028,0.999954,-0.001327,0.009457,0.001495,0.999841,-0.017755,-0.009432,0.017768,0.999798
05310,2,0,-60.0000,9.369143,-0.105815,-3.054733,-0.377549,0.405800,0.026833,-0.059783,0.108060,-0.179239,-0.270085,-0.444630,-0.250859,0.093674,-0.001151,-0.030598,0.999999,-0.000299,0.000540,-0.000896,0.999938,-0.009837,-0.005226,-0.000745,-1.126829,-0.599696,-0.079455,0.999944,-0.001387,0.010466,0.001592,0.999805,-0.019665,-0.010437,0.019680,0.999752
05311,2,0,-60.0000,9.346695,-0.005479,-3.116412,-0.457579,0.327635,0.023775,-0.049942,0.129239,-0.201007,-0.270059,-0.457634,-0.255956,0.093447,-0.000157,-0.031224,0.999999,-0.000250,0.000646,-0.001005,0.999924,-0.010886,-0.005827,-0.000704,-1.247073,-0.668586,-0.073394,0.999931,-0.001281,0.011669,0.001535,0.999762,-0.021762,-0.011638,0.021779,0.999695
05312,2,0,-61.0000,9.365449,0.001793,-3.116825,-0.465760,0.342939,0.040821,-0.063085,0.144353,-0.227820,-0.259169,-0.448893,-0.246945,0.093632,-0.000099,-0.031236,0.999999,-0.000315,0.000722,-0.001139,0.999906,-0.012087,-0.006502,-0.000683,-1.384715,-0.745970,-0.069306,0.999915,-0.001210,0.013019,0.001524,0.999707,-0.024163,-0.012986,0.024181,0.999623
05313,2,0,-60.0000,9.427076,0.022244,-2.989062,-0.341128,0.343782,0.065071,-0.096652,0.164240,-0.259652,-0.264779,-0.438218,-0.250130,0.094246,0.000086,-0.029968,0.999999,-0.000483,0.000821,-0.001298,0.999882,-0.013489,-0.007268,-0.000782,-1.545258,-0.834004,-0.078410,0.999893,-0.001368,0.014556,0.001761,0.999635,-0.026964,-0.014513,0.026986,0.999530
05314,2,0,-59.0000,9.496065,0.033609,-2.926363,-0.278856,0.361870,0.113599,-0.152631,0.186301,-0.299392,-0.267024,-0.450343,-0.249215,0.094934,0.000172,-0.029352,0.999998,-0.000763,0.000932,-0.001497,0.999851,-0.015164,-0.008142,-0.001100,-1.736919,-0.934864,-0.111911,0.999865,-0.001953,0.016316,0.002447,0.999538,-0.030306,-0.016249,0.030342,0.999407
05315,2,0,-58.0000,9.500529,-0.113953,-2.799991,-0.167612,0.539365,0.076388,-0.194914,0.195351,-0.346472,-0.269902,-0.441505,-0.254984,0.094976,-0.001331,-0.028091,0.999998,-0.000975,0.000977,-0.001732,0.999811,-0.017124,-0.009052,-0.001549,-1.960989,-1.040169,-0.159685,0.999831,-0.002787,0.018153,0.003407,0.999409,-0.034213,-0.018047,0.034269,0.999250
05316,2,0,-57.0000,9.462168,-0.330853,-2.822319,-0.208950,0.797471,0.032502,-0.212679,0.213571,-0.401590,-0.267126,-0.445556,-0.258855,0.094585,-0.003529,-0.028321,0.999997,-0.001063,0.001068,-0.002008,0.999760,-0.019377,-0.010045,-0.002004,-2.218640,-1.155316,-0.207313,0.999790,-0.003618,0.020163,0.004396,0.999241,-0.038705,-0.020007,0.038786,0.999047
05317,2,0,-58.0000,9.538036,-0.505176,-2.803580,-0.183016,1.020809,0.087494,-0.206476,0.222727,-0.465966,-0.266162,-0.444073,-0.254049,0.095337,-0.005303,-0.028137,0.999996,-0.001032,0.001114,-0.002330,0.999695,-0.021932,-0.011065,-0.002341,-2.510901,-1.273586,-0.240485,0.999744,-0.004196,0.022226,0.005167,0.999027,-0.043799,-0.022021,0.043902,0.998793
05318,2,0,-57.0000,9.498011,-0.664156,-2.746501,-0.152129,1.228611,0.019080,-0.183797,0.240328,-0.543360,-0.266993,-0.434697,-0.271110,0.094928,-0.006925,-0.027573,0.999995,-0.000919,0.001202,-0.002717,0.999615,-0.024832,-0.012156,-0.002465,-2.843033,-1.399590,-0.247833,0.999692,-0.004324,0.024425,0.005532,0.998755,-0.049585,-0.024180,0.049705,0.998471
05319,2,0,-57.0000,9.538744,-0.631965,-2.750099,-0.168453,1.259291,0.053187,-0.150964,0.260207,-0.625829,-0.262838,-0.435645,-0.254264,0.095331,-0.006639,-0.027620,0.999994,-0.000755,0.001301,-0.003129,0.999514,-0.028087,-0.013320,-0.002313,-3.216261,-1.533226,-0.222165,0.999634,-0.003876,0.026757,0.005373,0.998412,-0.056085,-0.026497,0.056208,0.998067
05320,2,0,-58.0000,9.553990,-0.603098,-2.770358,-0.209399,1.300855,0.065610,-0.131322,0.279733,-0.715163,-0.275133,-0.427995,-0.265915,0.095479,-0.006391,-0.027833,0.999992,-0.000657,0.001399,-0.003576,0.999388,-0.031750,-0.014559,-0.001947,-3.636839,-1.674651,-0.170059,0.999568,-0.002967,0.029224,0.004816,0.997976,-0.063405,-0.028977,0.063518,0.997560
05321,2,0,-59.0000,9.623928,-0.444725,-2.715639,-0.171481,1.221450,0.120615,-0.131080,0.305527,-0.814819,-0.273663,-0.431166,-0.260494,0.096178,-0.004857,-0.027300,0.999990,-0.000655,0.001528,-0.004074,0.999228,-0.035895,-0.015901,-0.001438,-4.113103,-1.826886,-0.099266,0.999490,-0.001732,0.031880,0.004015,0.997419,-0.071689,-0.031673,0.071781,0.996917
05322,2,0,-60.0000,9.664651,-0.292521,-2.764553,-0.243474,1.163325,0.173322,-0.163608,0.334852,-0.911095,-0.279411,-0.429629,-0.273309,0.096585,-0.003388,-0.027805,0.999988,-0.000818,0.001674,-0.004555,0.999026,-0.040552,-0.017374,-0.000942,-4.648480,-1.993726,-0.027121,0.999395,-0.000473,0.034790,0.003291,0.996709,-0.080993,-0.034637,0.081059,0.996107
05323,2,0,-61.0000,9.728809,-0.170015,-2.692902,-0.194179,1.141462,0.216703,-0.230376,0.362146,-1.019117,-0.273713,-0.424174,-0.269387,0.097229,-0.002227,-0.027103,0.999985,-0.001152,0.001811,-0.005096,0.998769,-0.045821,-0.018965,-0.000627,-5.254027,-2.174333,0.027801,0.999280,0.000485,0.037940,0.002991,0.995800,-0.091506,-0.037825,0.091553,0.995082
05324,2,0,-62.0000,9.842841,0.022749,-2.567326,-0.085908,1.064843,0.303172,-0.320873,0.392770,-1.128269,-0.277243,-0.425357,-0.277764,0.098377,-0.000369,-0.025866,0.999981,-0.001604,0.001964,-0.005641,0.998446,-0.051739,-0.020703,-0.000590,-5.933973,-2.372901,0.055251,0.999142,0.000963,0.041403,0.003321,0.994645,-0.103294,-0.041281,0.103343,0.993789
05325,2,0,-62.0000,10.145410,0.107706,-2.581163,-0.066357,1.140215,0.593903,-0.413094,0.424890,-1.244251,-0.271638,-0.415248,-0.273051,0.101403,0.000392,-0.026028,0.999976,-0.002065,0.002124,-0.006221,0.998041,-0.058340,-0.022590,-0.000844,-6.692003,-2.590023,0.054550,0.998978,0.000951,0.045189,0.004320,0.993191,-0.116413,-0.044992,0.116489,0.992172
05326,2,0,-64.0000,10.490558,0.222881,-2.406251,0.139949,1.199300,0.884574,-0.535395,0.458662,-1.355095,-0.276703,-0.409310,-0.283268,0.104862,0.001453,-0.024308,0.999971,-0.002677,0.002293,-0.006775,0.997538,-0.065636,-0.024650,-0.001533,-7.529258,-2.830411,0.010207,0.998780,0.000178,0.049380,0.006294,0.991379,-0.130873,-0.048978,0.131024,0.990169
05327,2,0,-65.0000,10.941890,-0.053515,-2.336062,0.281750,1.688975,1.243996,-0.664530,0.477396,-1.441851,-0.276625,-0.405632,-0.281764,0.109355,-0.001402,-0.023618,0.999966,-0.003323,0.002387,-0.007209,0.996930,-0.073516,-0.026814,-0.002726,-8.432659,-3.087713,-0.085641,0.998547,-0.001493,0.053865,0.009378,0.989176,-0.146434,-0.053063,0.146726,0.987753
05328,2,0,-66.0000,11.415442,-0.498346,-2.393314,0.310091,2.378916,1.612286,-0.736920,0.490666,-1.490498,-0.278875,-0.396596,-0.289754,0.114053,-0.005923,-0.024192,0.999962,-0.003685,0.002453,-0.007452,0.996223,-0.081719,-0.029058,-0.004196,-9.372776,-3.358406,-0.207277,0.998276,-0.003611,0.058582,0.013110,0.986609,-0.162577,-0.057210,0.163065,0.984955
05329,2,0,-69.0000,11.744162,-0.709803,-3.131899,-0.369037,2.893326,2.007924,-0.655922,0.478889,-1.522398,-0.282434,-0.398603,-0.306776,0.117307,-0.008095,-0.031575,0.999963,-0.003280,0.002394,-0.007612,0.995442,-0.089966,-0.031194,-0.005246,-10.319743,-3.614777,-0.277356,0.997999,-0.004831,0.063048,0.016057,0.983757,-0.178785,-0.061160,0.179439,0.981866
05330,2,0,-73.0000,12.045390,-0.347814,-3.635097,-0.855764,2.834525,2.420698,-0.477897,0.443429,-1.549773,-0.281965,-0.389061,-0.303860,0.120341,-0.004498,-0.036608,0.999965,-0.002389,0.002217,-0.007749,0.994611,-0.098108,-0.033072,-0.005409,-11.258658,-3.833079,-0.245269,0.997754,-0.004271,0.066850,0.017250,0.980691,-0.194802,-0.064727,0.195517,0.978562
05331,2,0,-77.0000,12.856548,0.567442,-3.857471,-0.986291,2.319032,3.383454,-0.345625,0.394860,-1.564291,-0.281371,-0.374198,-0.305562,0.128528,0.004602,-0.038837,0.999966,-0.001728,0.001974,-0.007821,0.993736,-0.106138,-0.034636,-0.004955,-12.187937,-4.007685,-0.143380,0.997552,-0.002496,0.069890,0.017201,0.977420,-0.210603,-0.067786,0.211289,0.975070
05332,2,0,-78.0000,14.210991,1.015224,-2.514182,0.545451,2.244968,4.468837,-0.420600,0.443773,-1.534278,-0.287930,-0.371808,-0.309994,0.142126,0.009009,-0.025477,0.999966,-0.002103,0.002219,-0.007671,0.992785,-0.114120,-0.036494,-0.004857,-13.111843,-4.219102,-0.075535,0.997289,-0.001315,0.073571,0.017974,0.973906,-0.226238,-0.071354,0.226947,0.971290
05333,2,0,-78.0000,12.851914,2.079302,-3.469702,-0.786443,1.241559,3.580205,-0.458678,0.465443,-1.598534,-0.274284,-0.362404,-0.321135,0.128598,0.019685,-0.035042,0.999963,-0.002293,0.002327,-0.007993,0.991717,-0.122452,-0.038448,-0.004864,-14.077409,-4.442060,-0.013335,0.996996,-0.000232,0.077451,0.019064,0.969964,-0.242502,-0.075068,0.243250,0.967054
05334,2,0,-75.0000,12.582817,1.940737,-3.471302,-0.885050,1.538799,3.263548,-0.660185,0.398384,-1.596066,-0.287150,-0.344576,-0.319640,0.125908,0.018288,-0.035025,0.999961,-0.003301,0.001992,-0.007980,0.990550,-0.130996,-0.040189,-0.005882,-15.064194,-4.655196,-0.064602,0.996701,-0.001124,0.081159,0.022182,0.965611,-0.259044,-0.078077,0.259989,0.962450
05335,2,0,-70.0000,12.332181,2.058431,-2.910874,-0.445675,1.528365,2.925203,-0.955270,0.435503,-1.590332,-0.284454,-0.339448,-0.333666,0.123416,0.019463,-0.029472,0.999955,-0.004776,0.002177,-0.007952,0.989232,-0.139863,-0.042291,-0.008305,-16.083540,-4.933224,-0.264554,0.996285,-0.004600,0.085995,0.028260,0.960739,-0.276012,-0.081349,0.277417,0.957299
05336,2,0,-66.0000,11.423864,1.562057,-2.907682,-0.645814,1.981246,1.894273,-1.162599,0.425007,-1.523772,-0.290316,-0.338767,-0.335504,0.114290,0.014580,-0.029406,0.999952,-0.005813,0.002125,-0.007619,0.987819,-0.148641,-0.044505,-0.011808,-17.088045,-5.246221,-0.580981,0.995760,-0.010097,0.091436,0.036558,0.955533,-0.292610,-0.084415,0.294712,0.951850
05337,2,0,-62.0000,10.667879,1.010444,-2.718026,-0.613289,2.466956,0.945900,-1.338743,0.364624,-1.401343,-0.287505,-0.328152,-0.338622,0.106695,0.009174,-0.027438,0.999951,-0.006694,0.001823,-0.007007,0.986361,-0.157013,-0.046593,-0.016344,-18.040053,-5.569161,-1.013879,0.995124,-0.017611,0.097047,0.046874,0.950160,-0.308220,-0.086782,0.311266,0.946352
05338,2,0,-60.0000,10.194766,0.316132,-2.881212,-0.835164,3.180785,0.262888,-1.466883,0.285444,-1.239032,-0.287743,-0.318025,-0.352040,0.101922,0.002318,-0.028977,0.999953,-0.007334,0.001427,-0.006195,0.984910,-0.164717,-0.048461,-0.021746,-18.909056,-5.890254,-1.547932,0.994357,-0.026871,0.102623,0.058800,0.944791,-0.322356,-0.088296,0.326571,0.941039
05339,2,0,-58.0000,9.787337,-3.665057,-2.309444,0.032430,6.841937,-1.582050,-1.578320,0.274279,-0.938294,-0.277347,-0.312267,-0.349500,0.097668,-0.037291,-0.022936,0.999957,-0.007891,0.001371,-0.004691,0.983559,-0.171098,-0.050510,-0.028026,-19.617331,-6.254765,-2.181938,0.993327,-0.037846,0.108950,0.072415,0.939880,-0.333738,-0.089769,0.339400,0.936349
05340,2,0,-56.0000,7.134572,-5.266247,-1.137480,0.881771,7.374395,-4.835799,-1.426337,0.213702,-0.611709,-0.279933,-0.309068,-0.356119,0.071172,-0.052960,-0.011074,0.999969,-0.007132,0.001068,-0.003059,0.982463,-0.175705,-0.052324,-0.033996,-20.118477,-6.589798,-2.793418,0.992213,-0.048413,0.114760,0.085188,0.935944,-0.341690,-0.090867,0.348805,0.932780
05341,2,0,-56.0000,7.411503,-6.328843,-2.653556,-0.343847,8.755634,-4.788156,-1.127132,-0.044719,-0.292921,-0.277864,-0.306785,-0.364108,0.074028,-0.063545,-0.026161,0.999983,-0.005636,-0.000224,-0.001465,0.981768,-0.178356,-0.052822,-0.039120,-20.395456,-6.757849,-3.346627,0.991359,-0.057971,0.117673,0.095656,0.933317,-0.346076,-0.089764,0.354342,0.930798
05342,2,0,-56.0000,7.188091,-7.054036,-2.059562,0.357239,9.257652,-5.358728,-0.815031,-0.099057,0.016201,-0.278753,-0.294803,-0.366137,0.071897,-0.070618,-0.020272,0.999992,-0.004075,-0.000495,0.000081,0.981446,-0.179147,-0.052998,-0.043142,-20.461446,-6.862496,-3.793992,0.990660,-0.065695,0.119487,0.103673,0.932090,-0.347073,-0.088572,0.356218,0.930195
05343,2,0,-57.0000,6.844535,-6.817620,-1.108019,1.239760,8.731119,-5.715667,-0.532484,-0.211322,0.343115,-0.273892,-0.285417,-0.362986,0.068574,-0.068088,-0.010826,0.999994,-0.002662,-0.001057,0.001716,0.981530,-0.178018,-0.052608,-0.046274,-20.309342,-6.877553,-4.165103,0.990182,-0.072108,0.119748,0.109569,0.932337,-0.344591,-0.086798,0.354329,0.931084
05344,2,0,-60.0000,6.881744,-6.307683,-0.181476,2.115753,8.054338,-5.590249,-0.284147,-0.277974,0.675456,-0.276084,-0.294549,-0.356234,0.069032,-0.062846,-0.001630,0.999992,-0.001421,-0.001390,0.003377,0.981998,-0.174983,-0.051916,-0.048648,-19.940074,-6.833656,-4.469563,0.989876,-0.077376,0.118987,0.113713,0.934029,-0.338614,-0.084937,0.348717,0.933372
05345,2,0,-65.0000,6.747540,-5.592428,-0.387945,1.811922,7.349184,-5.378638,0.035474,-0.357403,0.995000,-0.278300,-0.291783,-0.356345,0.067759,-0.055587,-0.003768,0.999986,0.000177,-0.001787,0.004975,0.982862,-0.170032,-0.050799,-0.049914,-19.355903,-6.709225,-4.669000,0.989856,-0.080842,0.116831,0.115392,0.937195,-0.329165,-0.082883,0.339308,0.937017
05346,2,0,-70.0000,6.580276,-5.069350,-1.053748,1.073583,6.892749,-5.181811,0.306485,-0.462971,1.333974,-0.266527,-0.286071,-0.353447,0.066163,-0.050237,-0.010462,0.999974,0.001532,-0.002315,0.006670,0.984097,-0.163090,-0.049188,-0.050356,-18.547091,-6.501963,-4.795708,0.990090,-0.083065,0.113237,0.115154,0.941732,-0.316038,-0.080387,0.325946,0.941965
05347,2,0,-59.0000,6.940315,-4.777870,-1.388738,0.793552,6.713995,-4.595864,0.440561,-0.542574,1.666669,-0.272732,-0.286462,-0.342460,0.069835,-0.047167,-0.013803,0.999959,0.002203,-0.002713,0.008333,0.985582,-0.154370,-0.047306,-0.050589,-17.535261,-6.250035,-4.911820,0.990406,-0.085114,0.108867,0.114324,0.947222,-0.299502,-0.077630,0.309075,0.947864
05348,2,0,-54.0000,7.771452,-4.309269,-1.041819,1.244441,6.317189,-3.600415,0.476770,-0.540354,1.973636,-0.266487,-0.284957,-0.340480,0.078162,-0.042298,-0.010309,0.999945,0.002384,-0.002702,0.009868,0.987194,-0.144112,-0.045606,-0.050995,-16.345569,-6.012332,-5.049875,0.990639,-0.087539,0.104743,0.113828,0.953262,-0.279882,-0.075347,0.289185,0.954303
05349,2,0,-52.0000,8.422679,-3.786720,-0.941445,1.411974,5.818949,-2.719772,0.536477,-0.518679,2.227175,-0.268886,-0.292515,-0.324250,0.084666,-0.036901,-0.009295,0.999931,0.002682,-0.002593,0.011136,0.988856,-0.132577,-0.044129,-0.051377,-15.009871,-5.790889,-5.184840,0.990826,-0.089908,0.100898,0.113310,0.959568,-0.257664,-0.073653,0.266733,0.960952
05350,2,0,-52.0000,9.011034,-3.452578,-1.253189,1.194242,5.512157,-1.883357,0.648162,-0.522235,2.458878,-0.277161,-0.286130,-0.326396,0.090558,-0.033374,-0.012405,0.999916,0.003241,-0.002611,0.012294,0.990546,-0.119761,-0.042711,-0.051491,-13.530363,-5.563391,-5.290907,0.991049,-0.091778,0.096947,0.112238,0.966012,-0.232859,-0.072281,0.241655,0.967666
05351,2,0,-55.0000,9.524591,-3.140542,-1.662567,0.868407,5.173852,-1.105478,0.754317,-0.540961,2.646060,-0.257439,-0.284786,-0.316675,0.095694,-0.030079,-0.016482,0.999902,0.003771,-0.002705,0.013230,0.992194,-0.105906,-0.041250,-0.051310,-11.935824,-5.320293,-5.364123,0.991331,-0.093082,0.092723,0.110556,0.972303,-0.205925,-0.070987,0.214391,0.974165
05352,2,0,-65.0000,10.099524,-2.733776,-2.132580,0.483661,4.708800,-0.241542,0.855873,-0.565798,2.791523,-0.261775,-0.282696,-0.318708,0.101423,-0.025833,-0.021152,0.999889,0.004279,-0.002829,0.013957,0.993744,-0.091179,-0.039700,-0.050821,-10.246047,-5.058349,-5.401476,0.991682,-0.093767,0.088170,0.108246,0.978207,-0.177183,-0.069635,0.185253,0.980221
05353,2,0,-63.0000,10.697141,-2.301113,-2.552558,0.151442,4.151576,0.626230,0.918202,-0.587276,2.900431,-0.267489,-0.286278,-0.307356,0.107364,-0.021339,-0.025311,0.999880,0.004591,-0.002936,0.014502,0.995130,-0.075841,-0.038070,-0.050155,-8.490074,-4.782729,-5.415403,0.992070,-0.094047,0.083377,0.105596,0.983465,-0.147124,-0.068162,0.154762,0.985598
05354,2,0,-56.0000,11.025229,-1.801798,-2.841835,-0.116654,3.417503,1.195226,0.950347,-0.610136,2.966441,-0.265742,-0.278360,-0.292091,0.110588,-0.016245,-0.028161,0.999874,0.004752,-0.003051,0.014832,0.996306,-0.060098,-0.036346,-0.049417,-6.691189,-4.494537,-5.416228,0.992474,-0.094100,0.078364,0.102837,0.987892,-0.116160,-0.066485,0.123344,0.990134
05355,2,0,-54.0000,11.143158,-1.145733,-2.996480,-0.315625,2.454394,1.515442,0.940043,-0.625485,2.985628,-0.262224,-0.274866,-0.296180,0.111678,-0.009651,-0.029664,0.999873,0.004700,-0.003127,0.014928,0.997232,-0.044272,-0.034547,-0.048738,-4.885240,-4.198858,-5.416876,0.992862,-0.094148,0.073218,0.100266,0.991329,-0.084932,-0.064587,0.091667,0.993693
05356,2,0,-54.0000,11.201598,-0.165197,-2.870049,-0.293091,1.107768,1.694525,0.936184,-0.646384,2.977780,-0.266695,-0.280671,-0.282904,0.112115,0.000150,-0.028340,0.999873,0.004681,-0.003232,0.014888,0.997905,-0.028449,-0.032634,-0.048068,-3.082065,-3.891441,-5.410780,0.993249,-0.094078,0.067866,0.097792,0.993760,-0.053642,-0.062396,0.059917,0.996251
05357,2,0,-56.0000,11.331853,1.207109,-2.672938,-0.229234,-0.640434,1.872285,0.931384,-0.673574,2.938226,-0.262196,-0.275207,-0.282192,0.113213,0.013858,-0.026286,0.999876,0.004657,-0.003368,0.014691,0.998328,-0.012824,-0.030557,-0.047359,-1.303869,-3.567667,-5.391329,0.993647,-0.093776,0.062227,0.095343,0.995185,-0.022711,-0.059798,0.028499,0.997804
05358,2,0,-58.0000,11.609119,2.459495,-2.415563,-0.047662,-2.282191,2.079892,0.853778,-0.693477,2.877683,-0.262530,-0.277564,-0.275222,0.115803,0.026364,-0.023644,0.999881,0.004269,-0.003467,0.014388,0.998492,0.002443,-0.028350,-0.046945,0.432680,-3.232353,-5.395830,0.993985,-0.093886,0.056385,0.093609,0.995580,0.007540,-0.056844,-0.002216,0.998381
05359,2,0,-60.0000,11.832987,2.032505,-2.515888,-0.000184,-2.215796,2.252104,0.714286,-0.683725,2.848659,-0.258740,-0.272680,-0.285499,0.118108,0.022097,-0.024678,0.999886,0.003571,-0.003418,0.014243,0.998394,0.017368,-0.026160,-0.047150,2.131566,-2.900257,-5.461638,0.994185,-0.095057,0.050597,0.093240,0.994950,0.037147,-0.053873,-0.032213,0.998028
05360,2,0,-66.0000,11.655337,0.807979,-1.958263,0.689086,-1.413746,1.928297,0.566478,-0.640691,2.838665,-0.262480,-0.282650,-0.270911,0.116484,0.009788,-0.019183,0.999890,0.002832,-0.003203,0.014193,0.998038,0.032052,-0.024154,-0.048052,3.805357,-2.586817,-5.598917,0.994215,-0.097465,0.045133,0.094368,0.993327,0.066300,-0.051294,-0.061657,0.996778
05361,2,0,-68.0000,11.433455,0.294037,-1.750551,0.933280,-1.248700,1.651832,0.482023,-0.612426,2.781328,-0.261067,-0.274475,-0.278452,0.114331,0.004572,-0.017146,0.999896,0.002410,-0.003062,0.013906,0.997463,0.046314,-0.022242,-0.049275,5.431730,-2.281328,-5.764478,0.994155,-0.100360,0.039806,0.096239,0.990854,0.094585,-0.048935,-0.090201,0.994721
05362,2,0,-60.0000,11.428675,0.382499,-2.027431,0.679596,-1.631290,1.665104,0.434873,-0.595362,2.687720,-0.259399,-0.283640,-0.284542,0.114281,0.005404,-0.019923,0.999903,0.002174,-0.002977,0.013438,0.996703,0.060066,-0.020365,-0.050600,7.000060,-1.978076,-5.933544,0.994050,-0.103313,0.034517,0.098420,0.987663,0.121798,-0.046675,-0.117676,0.991955
05363,2,0,-57.0000,11.646724,0.454984,-2.174809,0.602929,-2.034383,1.852318,0.445177,-0.551418,2.586352,-0.246611,-0.283014,-0.274053,0.116454,0.006104,-0.021415,0.999910,0.002226,-0.002757,0.012931,0.995792,0.073298,-0.018669,-0.051739,8.509607,-1.695997,-6.074689,0.993949,-0.105778,0.029596,0.100305,0.983901,0.147910,-0.044766,-0.144047,0.988558
05364,2,0,-57.0000,11.891867,0.588641,-2.296066,0.545855,-2.504081,2.038827,0.465607,-0.504654,2.482962,-0.245840,-0.280395,-0.277843,0.118890,0.007416,-0.022645,0.999917,0.002328,-0.002523,0.012414,0.994751,0.086045,-0.017180,-0.052652,9.965241,-1.439317,-6.185165,0.993865,-0.107708,0.025118,0.101795,0.979648,0.172996,-0.043240,-0.169378,0.984602
05365,2,0,-59.0000,11.861199,0.972258,-2.306327,0.490741,-3.167762,1.877889,0.460597,-0.451508,2.362804,-0.252587,-0.289679,-0.277893,0.118537,0.011176,-0.022771,0.999925,0.002303,-0.002257,0.011814,0.993608,0.098157,-0.015908,-0.053436,11.350022,-1.210285,-6.277049,0.993783,-0.109312,0.021122,0.103066,0.975020,0.196758,-0.042102,-0.193358,0.980224
05366,2,0,-62.0000,11.518216,1.481520,-2.319027,0.333991,-3.858912,1.378080,0.424541,-0.379408,2.208059,-0.249699,-0.288335,-0.279507,0.115053,0.016135,-0.022939,0.999935,0.002123,-0.001897,0.011040,0.992400,0.109452,-0.014928,-0.054213,12.644046,-1.017667,-6.366515,0.993676,-0.110871,0.017761,0.104335,0.970162,0.218859,-0.041496,-0.215622,0.975595
05367,2,0,-60.0000,10.888135,2.273437,-2.089918,0.292241,-4.727754,0.465745,0.339144,-0.298453,2.013485,-0.258623,-0.287327,-0.284007,0.108676,0.023864,-0.020697,0.999947,0.001696,-0.001492,0.010067,0.991181,0.119640,-0.014235,-0.055166,13.813802,-0.860555,-6.475469,0.993508,-0.112765,0.015019,0.105953,0.965286,0.238740,-0.041419,-0.235599,0.970967
05368,2,0,-58.0000,10.155623,3.052800,-2.304376,-0.206928,-5.462869,-0.438386,0.193940,-0.241892,1.782267,-0.255475,-0.296727,-0.284169,0.101306,0.031454,-0.022891,0.999959,0.000970,-0.001209,0.008911,0.990001,0.128513,-0.013665,-0.056529,14.834047,-0.717752,-6.629513,0.993235,-0.115440,0.012527,0.108415,0.960578,0.256000,-0.041586,-0.252910,0.966596
05369,2,0,-56.0000,9.786868,3.321082,-2.452640,-0.488447,-5.758700,-0.900649,0.007912,-0.203586,1.566288,-0.255765,-0.294839,-0.291464,0.097629,0.033977,-0.024426,0.999969,0.000040,-0.001018,0.007831,0.988884,0.136068,-0.013090,-0.058501,15.703331,-0.571175,-6.849922,0.992813,-0.119263,0.009969,0.112139,0.956126,0.270643,-0.041809,-0.267580,0.962628
05370,2,0,-56.0000,9.537226,3.274912,-2.267681,-0.381942,-5.778117,-1.251606,-0.206625,-0.157291,1.372370,-0.244327,-0.307912,-0.287195,0.095162,0.033379,-0.022636,0.999976,-0.001033,-0.000786,0.006862,0.987832,0.142402,-0.012536,-0.061260,16.432249,-0.419340,-7.157856,0.992180,-0.124600,0.007319,0.117460,0.951938,0.282874,-0.042213,-0.279802,0.959129
05371,2,0,-56.0000,9.238278,3.282416,-2.129045,-0.345780,-5.799945,-1.633870,-0.460349,-0.128001,1.158758,-0.253639,-0.302785,-0.296161,0.092204,0.033310,-0.021308,0.999980,-0.002302,-0.000640,0.005794,0.986878,0.147350,-0.011867,-0.064949,17.000289,-0.245298,-7.567385,0.991282,-0.131691,0.004281,0.124697,0.948139,0.292374,-0.042562,-0.289291,0.956295
05372,2,0,-58.0000,9.070788,3.125341,-2.325063,-0.575321,-5.651443,-1.739113,-0.659139,-0.117047,0.923188,-0.244382,-0.310997,-0.301685,0.090576,0.031595,-0.023301,0.999984,-0.003296,-0.000585,0.004616,0.986055,0.150918,-0.011028,-0.069270,17.406837,-0.048109,-8.044141,0.990160,-0.139936,0.000840,0.133279,0.944851,0.299155,-0.042656,-0.296099,0.954204
05373,2,0,-59.0000,9.169936,2.687023,-2.538853,-0.706606,-5.296724,-1.494104,-0.743771,-0.087974,0.667730,-0.245378,-0.308810,-0.306227,0.091620,0.027082,-0.025449,0.999987,-0.003719,-0.000440,0.003339,0.985404,0.153133,-0.010181,-0.073658,17.655727,0.142956,-8.527500,0.988942,-0.148284,-0.002495,0.142048,0.942249,0.303296,-0.042623,-0.300296,0.952893
05374,2,0,-60.0000,9.412445,2.213410,-2.582281,-0.624969,-4.951907,-1.138043,-0.704935,-0.050520,0.391098,-0.244411,-0.321335,-0.309056,0.094088,0.022227,-0.025877,0.999992,-0.003525,-0.000253,0.001955,0.984968,0.154081,-0.009464,-0.077511,17.758181,0.300382,-8.952213,0.987805,-0.155609,-0.005243,0.149776,0.940502,0.304996,-0.042529,-0.302062,0.952339
05375,2,0,-63.0000,9.415195,2.100997,-2.605920,-0.638090,-4.848291,-1.098457,-0.575895,-0.019135,0.086829,-0.237386,-0.310840,-0.309087,0.094145,0.020976,-0.026111,0.999996,-0.002879,-0.000096,0.000434,0.984799,0.153735,-0.008904,-0.080354,17.712180,0.410747,-9.265368,0.986928,-0.161003,-0.007169,0.155528,0.939817,0.304228,-0.042244,-0.301366,0.952572
05376,2,0,-64.0000,9.469074,2.369077,-2.706194,-0.777306,-5.088242,-1.088878,-0.400568,0.001107,-0.232787,-0.249283,-0.305901,-0.321620,0.094718,0.023526,-0.027110,0.999997,-0.002003,0.000006,-0.001164,0.984924,0.152115,-0.008483,-0.081944,17.520249,0.470940,-9.439299,0.986427,-0.163997,-0.008219,0.158836,0.940293,0.301033,-0.041640,-0.298252,0.953578
05377,2,0,-63.0000,9.530276,2.788918,-2.826040,-0.955715,-5.447643,-1.094879,-0.243358,0.021768,-0.564574,-0.245805,-0.303489,-0.312718,0.095378,0.027586,-0.028304,0.999995,-0.001217,0.000109,-0.002823,0.985351,0.149118,-0.008172,-0.082343,17.170984,0.484302,-9.480782,0.986306,-0.164711,-0.008453,0.159836,0.941967,0.295214,-0.040663,-0.292522,0.955394
05378,2,0,-62.0000,9.273027,3.143647,-2.851986,-1.099850,-5.632111,-1.382124,-0.008632,0.068330,-0.894940,-0.244299,-0.304189,-0.327413,0.092860,0.031020,-0.028553,0.999990,-0.000043,0.000342,-0.004475,0.986080,0.144858,-0.008166,-0.081208,16.679513,0.425272,-9.353543,0.986677,-0.162521,-0.007422,0.157790,0.944843,0.287010,-0.039632,-0.284357,0.957899
05379,2,0,-60.0000,9.126020,3.636370,-2.951392,-1.301221,-5.960562,-1.566741,0.278026,0.091051,-1.229531,-0.246860,-0.290789,-0.339638,0.091468,0.035843,-0.029505,0.999980,0.001390,0.000455,-0.006148,0.987106,0.139381,-0.008377,-0.078264,16.050334,0.302506,-9.023879,0.987609,-0.156844,-0.005280,0.152174,0.948896,0.276478,-0.038354,-0.273856,0.961006
05380,2,0,-59.0000,9.045365,4.391191,-3.012066,-1.478006,-6.551965,-1.746753,0.572872,0.111198,-1.577478,-0.253381,-0.290025,-0.335938,0.090780,0.043283,-0.030046,0.999965,0.002864,0.000556,-0.007887,0.988399,0.132643,-0.008791,-0.073450,15.277899,0.120710,-8.483756,0.989056,-0.147529,-0.002107,0.142864,0.954022,0.263500,-0.036864,-0.260917,0.964657
05381,2,0,-58.0000,9.027205,5.140031,-3.118409,-1.651478,-7.143329,-1.820340,0.820814,0.117542,-1.927539,-0.251257,-0.285067,-0.344961,0.090744,0.050655,-0.031028,0.999945,0.004104,0.000588,-0.009638,0.989905,0.124562,-0.009294,-0.066972,14.350599,-0.098340,-7.753280,0.990857,-0.134907,0.001716,0.130277,0.959998,0.247854,-0.035085,-0.245365,0.968796
05382,2,0,-58.0000,9.429669,5.090015,-3.518900,-1.840072,-7.043556,-1.198263,1.014349,0.116403,-2.238422,-0.265201,-0.272680,-0.353328,0.094839,0.050018,-0.034989,0.999924,0.005072,0.000582,-0.011192,0.991525,0.115256,-0.009823,-0.059137,13.280807,-0.335101,-6.865429,0.992813,-0.119536,0.005849,0.115007,0.966438,0.229720,-0.033112,-0.227396,0.973239
05383,2,0,-58.0000,10.630709,-0.055254,-5.884032,-2.974127,-2.024836,1.792861,1.151357,0.119158,-2.326926,-0.258199,-0.256366,-0.357679,0.106259,-0.001450,-0.058910,0.999916,0.005757,0.000596,-0.011634,0.993060,0.105690,-0.010422,-0.050517,12.179629,-0.574188,-5.885559,0.994679,-0.102537,0.010021,0.098131,0.972555,0.210967,-0.031378,-0.208861,0.977442
05384,2,0,-57.0000,17.401032,-18.705866,-14.111387,-6.866610,15.284363,14.084083,1.974753,-0.016403,-1.634491,-0.262586,-0.246921,-0.357406,0.172493,-0.187067,-0.142947,0.999918,0.009873,-0.000082,-0.008172,0.994109,0.100581,-0.011019,-0.038841,11.586797,-0.807634,-4.556840,0.996740,-0.079440,0.014095,0.075007,0.976750,0.200832,-0.029722,-0.199120,0.979524
05385,2,0,-56.0000,19.960684,-13.368405,10.974294,16.924865,8.327073,8.674263,1.001628,1.121918,-1.100180,-0.278435,-0.243330,-0.349434,0.199474,-0.135325,0.107949,0.999957,0.005008,0.005610,-0.005501,0.994664,0.096266,-0.016866,-0.033058,11.109870,-1.557920,-3.958651,0.997245,-0.069011,0.027187,0.062516,0.979280,0.192620,-0.039917,-0.190390,0.980897
05386,2,0,-56.0000,3.253000,-4.721491,4.658724,5.733901,3.767157,-7.072523,0.106116,0.999006,-1.843348,-0.283575,-0.226911,-0.362173,0.032325,-0.047538,0.046400,0.999945,0.000531,0.004995,-0.009217,0.995487,0.087250,-0.021492,-0.030520,10.087180,-2.147086,-3.701567,0.997213,-0.064514,0.037465,0.057014,0.982912,0.175023,-0.048116,-0.172400,0.983851
05387,2,0,-55.0000,5.984048,0.014118,-4.116684,-2.562656,-0.864682,-3.071724,1.348677,-0.268583,-2.361575,-0.295755,-0.219523,-0.375131,0.059894,-0.000289,-0.041087,0.999907,0.006743,-0.001343,-0.011808,0.996548,0.077770,-0.020273,-0.020831,8.972169,-2.129908,-2.562087,0.998310,-0.044671,0.037165,0.038365,0.987036,0.155847,-0.043645,-0.154158,0.987082
05388,2,0,-55.0000,8.773204,4.990711,-4.171097,-2.219053,-6.131991,-1.052289,2.503674,-0.161663,-2.537865,-0.287735,-0.207449,-0.384108,0.088394,0.049305,-0.041020,0.999841,0.012518,-0.000808,-0.012689,0.997407,0.068912,-0.020017,-0.005389,7.919849,-2.245911,-0.774567,0.999141,-0.013508,0.039189,0.007990,0.990444,0.137682,-0.040674,-0.137250,0.989701
05389,2,0,-56.0000,9.038713,9.512717,-6.815504,-4.669447,-10.575358,-0.593766,2.731743,-0.185521,-2.273159,-0.298405,-0.189910,-0.379441,0.091530,0.095010,-0.066772,0.999842,0.013658,-0.000928,-0.011365,0.997847,0.061602,-0.019741,0.010812,7.043018,-2.334289,1.097911,0.998987,0.019145,0.040730,-0.024010,0.992176,0.122513,-0.038066,-0.123367,0.991631
05390,2,0,-57.0000,12.859069,7.167281,-5.936589,-2.570923,-8.603465,3.276701,1.983915,-0.434387,-2.006197,-0.303117,-0.182987,-0.387725,0.129432,0.070960,-0.058379,0.999898,0.009919,-0.002172,-0.010031,0.998077,0.054615,-0.018025,0.023119,6.215404,-2.206725,2.534054,0.998281,0.044180,0.038505,-0.048118,0.992965,0.108186,-0.033455,-0.109853,0.993385
05391,2,0,-58.0000,15.387851,5.732747,0.633563,4.586111,-6.955378,4.351759,1.411650,-0.178634,-2.012872,-0.297586,-0.165408,-0.392916,0.154439,0.055728,0.006871,0.999924,0.007058,-0.000893,-0.010064,0.998219,0.046808,-0.017448,0.032621,5.300417,-2.171289,3.642951,0.997263,0.063493,0.037887,-0.066760,0.993490,0.092312,-0.031779,-0.094588,0.995009
05392,2,0,-59.0000,9.927044,2.314268,-1.237004,1.380370,-3.001151,-0.090704,1.309281,0.035792,-1.976879,-0.313033,-0.158719,-0.390916,0.099491,0.022240,-0.012240,0.999930,0.006546,0.000179,-0.009884,0.998213,0.039030,-0.017923,0.041538,4.386808,-2.236510,4.679970,0.995907,0.081528,0.039025,-0.084326,0.993503,0.076431,-0.032540,-0.079409,0.996311
05393,2,0,-59.0000,7.286322,2.894462,-0.983118,1.031358,-3.277017,-2.697145,1.208031,-0.070398,-1.728615,-0.300944,-0.150397,-0.394218,0.073114,0.028372,-0.009633,0.999944,0.006040,-0.000352,-0.008643,0.998085,0.032304,-0.017833,0.049648,3.598346,-2.223958,5.625599,0.994434,0.097954,0.038806,-0.100258,0.992983,0.062714,-0.032390,-0.066256,0.997277
05394,2,0,-58.0000,7.102365,4.682980,-2.103178,0.053295,-5.027270,-2.634977,0.130319,-0.137539,-1.538687,-0.308921,-0.134281,-0.399251,0.071396,0.046295,-0.020952,0.999970,0.000652,-0.000688,-0.007693,0.998166,0.025061,-0.017300,0.052322,2.765812,-2.129539,5.949745,0.993926,0.103585,0.037159,-0.105319,0.993269,0.048220,-0.031914,-0.051841,0.998145
05395,2,0,-56.0000,9.552665,5.244747,-3.698161,-0.811631,-5.637059,0.187302,-0.159432,-0.208735,-1.407600,-0.306436,-0.126566,-0.400491,0.095931,0.051744,-0.036923,0.999974,-0.000797,-0.001044,-0.007038,0.998274,0.018058,-0.016380,0.053430,1.967045,-1.984761,6.093327,0.993754,0.106085,0.034634,-0.107268,0.993638,0.034304,-0.030774,-0.037805,0.998811
05396,2,0,-55.0000,10.596927,4.189104,-1.505558,1.503578,-4.288532,0.744589,-0.399335,-0.128564,-1.241947,-0.309902,-0.123303,-0.404052,0.106236,0.041202,-0.015070,0.999979,-0.001997,-0.000643,-0.006210,0.998394,0.011539,-0.015846,0.053157,1.224397,-1.883486,6.075310,0.993846,0.105778,0.032867,-0.106510,0.994082,0.021357,-0.030414,-0.024726,0.999232
05397,2,0,-54.0000,10.289494,2.968492,-0.582148,2.227789,-2.880180,0.275166,-0.858532,-0.147430,-1.102618,-0.302930,-0.111247,-0.418319,0.103061,0.029092,-0.005871,0.999975,-0.004293,-0.000737,-0.005513,0.998596,0.005078,-0.015210,0.050488,0.493345,-1.770176,5.781036,0.994439,0.100679,0.030890,-0.100988,0.994850,0.008606,-0.029865,-0.011678,0.999486
05398,2,0,-54.0000,9.829048,2.385570,-1.309778,1.359315,-2.235525,0.044805,-1.186747,-0.135800,-1.015197,-0.303128,-0.124329,-0.408590,0.098419,0.023278,-0.013170,0.999969,-0.005934,-0.000679,-0.005076,0.998828,-0.001402,-0.014646,0.046119,-0.237977,-1.669155,5.290727,0.995317,0.092170,0.029128,-0.092088,0.995742,-0.004152,-0.029387,0.001450,0.999567
05399,2,0,-54.0000,8.917853,2.298780,-1.767731,0.669485,-2.090949,-0.695876,-1.159147,-0.172868,-0.862333,-0.301842,-0.117393,-0.418130,0.089292,0.022500,-0.017732,0.999974,-0.005796,-0.000864,-0.004312,0.999009,-0.007108,-0.013885,0.041674,-0.880415,-1.555780,4.789385,0.996141,0.083462,0.027150,-0.083068,0.996426,-0.015360,-0.028335,0.013045,0.999513
05400,2,0,-56.0000,9.167735,1.158910,-2.002347,0.453252,-0.861527,-0.407819,-1.025269,-0.248896,-0.696492,-0.297850,-0.109922,-0.414215,0.091742,0.011167,-0.019967,0.999980,-0.005126,-0.001244,-0.003482,0.999140,-0.011841,-0.012735,0.037642,-1.411189,-1.407121,4.332414,0.996842,0.075520,0.024556,-0.074917,0.996886,-0.024620,-0.026339,0.022703,0.999395
05401,2,0,-57.0000,9.666982,-1.056063,-1.831493,0.681258,1.453525,-0.048321,-0.516707,-0.297058,-0.602861,-0.298087,-0.115344,-0.419490,0.096664,-0.010899,-0.018143,0.999991,-0.002584,-0.001485,-0.003014,0.999172,-0.015433,-0.011286,0.035924,-1.814257,-1.228772,4.137681,0.997164,0.072137,0.021444,-0.071440,0.996943,-0.031652,-0.023662,0.030030,0.999269
05402,2,0,-57.0000,9.683175,-1.772432,-2.169596,0.363502,2.222839,0.012742,0.215034,-0.373504,-0.598270,-0.296807,-0.113521,-0.427501,0.096819,-0.017991,-0.021534,0.999993,0.001075,-0.001868,-0.002991,0.999083,-0.018014,-0.009368,0.037708,-2.103652,-0.994715,4.341173,0.996981,0.075684,0.017360,-0.075009,0.996507,-0.036702,-0.020077,0.035289,0.999175
05403,2,0,-56.0000,9.487951,-0.692295,-2.931195,-0.349196,1.163975,0.067361,0.649722,-0.409629,-0.659003,-0.294497,-0.108324,-0.413420,0.094916,-0.007141,-0.029141,0.999987,0.003249,-0.002048,-0.003295,0.998900,-0.020291,-0.007202,0.041658,-2.357820,-0.727576,4.791105,0.996425,0.083516,0.012698,-0.082932,0.995706,-0.041137,-0.016079,0.039937,0.999073
05404,2,0,-57.0000,9.370917,1.125848,-3.365017,-0.673756,-0.626399,0.165203,0.679345,-0.385905,-0.682472,-0.295648,-0.110060,-0.419698,0.093812,0.011052,-0.033431,0.999987,0.003397,-0.001930,-0.003412,0.998681,-0.022640,-0.005154,0.045784,-2.619025,-0.471066,5.260497,0.995754,0.091681,0.008222,-0.091214,0.994782,-0.045693,-0.012368,0.044749,0.998922
05405,2,0,-56.0000,9.491137,2.952405,-3.641014,-0.760681,-2.402387,0.468599,0.352867,-0.328208,-0.629789,-0.293530,-0.099914,-0.423376,0.095063,0.029289,-0.036202,0.999992,0.001764,-0.001641,-0.003149,0.998510,-0.025184,-0.003447,0.048281,-2.901872,-0.255037,5.542972,0.995314,0.096591,0.004451,-0.096244,0.994069,-0.050625,-0.009315,0.049959,0.998708
05406,2,0,-55.0000,9.644842,4.339499,-3.394376,-0.362697,-3.708905,0.650970,-0.130707,-0.286061,-0.513927,-0.294508,-0.099146,-0.423342,0.096608,0.043125,-0.033834,0.999995,-0.000654,-0.001430,-0.002570,0.998442,-0.027844,-0.002044,0.048305,-3.198717,-0.079738,5.541835,0.995325,0.096572,0.001392,-0.096345,0.993783,-0.055799,-0.006772,0.055404,0.998441
05407,2,0,-56.0000,9.714845,4.584296,-3.011902,0.050237,-3.874618,0.649150,-0.642644,-0.236069,-0.380829,-0.296279,-0.098188,-0.431219,0.097271,0.045561,-0.030151,0.999992,-0.003213,-0.001180,-0.001904,0.998487,-0.030576,-0.000990,0.045699,-3.505854,0.046846,5.239597,0.995821,0.091321,-0.000818,-0.091200,0.993953,-0.061151,-0.004772,0.060970,0.998128
05408,2,0,-57.0000,9.552325,4.154624,-2.835894,0.137091,-3.396480,0.434013,-1.130826,-0.209789,-0.272315,-0.291551,-0.101236,-0.425994,0.095609,0.041255,-0.028492,0.999983,-0.005654,-0.001049,-0.001362,0.998614,-0.033476,-0.000176,0.040607,-3.834385,0.135685,4.652616,0.996702,0.081114,-0.002368,-0.081091,0.994461,-0.066873,-0.003069,0.066844,0.997759
05409,2,0,-58.0000,9.768169,2.996088,-2.647788,0.301276,-2.160188,0.514310,-1.571048,-0.208680,-0.194346,-0.300169,-0.098239,-0.426257,0.097738,0.029657,-0.026610,0.999968,-0.007855,-0.001043,-0.000972,0.998774,-0.036615,0.000538,0.033296,-4.192377,0.201297,3.811364,0.997782,0.066471,-0.003513,-0.066550,0.995101,-0.073105,-0.001363,0.073177,0.997318
05410,2,0,-59.0000,10.032369,0.954057,-2.729512,0.224777,-0.041102,0.625528,-1.733158,-0.205856,-0.156320,-0.281451,-0.099869,-0.423876,0.100359,0.009226,-0.027273,0.999962,-0.008666,-0.001029,-0.000782,0.998890,-0.039804,0.001195,0.025153,-4.557546,0.251466,2.874922,0.998732,0.050155,-0.004389,-0.050346,0.995566,-0.079460,0.000384,0.079580,0.996828
05411,2,0,-60.0000,9.828585,-1.144991,-2.827974,0.063157,2.093491,0.263146,-1.536776,-0.191055,-0.175826,-0.281790,-0.097447,-0.427084,0.098303,-0.011753,-0.028096,0.999970,-0.007684,-0.000955,-0.000879,0.998920,-0.042801,0.001828,0.017980,-4.901667,0.297416,2.049673,0.999347,0.035765,-0.005191,-0.036078,0.995689,-0.085445,0.002113,0.085576,0.996329
05412,2,0,-60.0000,9.350020,-2.645046,-2.894243,-0.097046,3.600761,-0.335321,-1.083175,-0.172648,-0.252542,-0.279384,-0.100656,-0.421939,0.093491,-0.026724,-0.028717,0.999984,-0.005416,-0.000863,-0.001263,0.998874,-0.045527,0.002482,0.013092,-5.214698,0.352415,1.485745,0.999645,0.025928,-0.006151,-0.026380,0.995512,-0.090886,0.003767,0.091016,0.995842
05413,2,0,-60.0000,8.947749,-2.604594,-3.255578,-0.522966,3.585280,-0.630263,-0.529674,-0.178326,-0.332537,-0.288168,-0.105305,-0.429534,0.089463,-0.026281,-0.032407,0.999995,-0.002648,-0.000892,-0.001663,0.998789,-0.047842,0.003315,0.010964,-5.480044,0.439536,1.236861,0.999738,0.021585,-0.007671,-0.022219,0.995182,-0.095496,0.005573,0.095642,0.995400
05414,2,0,-57.0000,9.291846,-1.110770,-3.397636,-0.557631,2.182911,-0.115269,-0.114345,-0.177156,-0.407360,-0.275181,-0.102640,-0.433355,0.092926,-0.011316,-0.033888,0.999997,-0.000572,-0.000886,-0.002037,0.998684,-0.049927,0.004255,0.010931,-5.718086,0.549509,1.226701,0.999725,0.021407,-0.009591,-0.022257,0.994776,-0.099629,0.007408,0.099815,0.994978
05415,2,0,-56.0000,9.587073,0.545941,-3.425853,-0.505505,0.608618,0.351976,0.036142,-0.134281,-0.442266,-0.277341,-0.090331,-0.431956,0.095905,0.005254,-0.034193,0.999997,0.000181,-0.000671,-0.002211,0.998568,-0.051965,0.005031,0.011680,-5.950553,0.645227,1.306721,0.999677,0.022803,-0.011261,-0.023849,0.994326,-0.103664,0.008833,0.103899,0.994549
05416,2,0,-54.0000,9.378455,2.135153,-3.505018,-0.646967,-0.946203,0.360090,-0.096359,-0.124348,-0.424802,-0.281730,-0.095786,-0.431428,0.093851,0.021135,-0.035002,0.999997,-0.000482,-0.000622,-0.002124,0.998449,-0.054113,0.005714,0.011773,-6.196165,0.726818,1.311755,0.999657,0.022891,-0.012685,-0.024127,0.993866,-0.107924,0.010137,0.108193,0.994078
05417,2,0,-54.0000,9.317828,2.574076,-3.329185,-0.491400,-1.349906,0.309927,-0.375002,-0.127350,-0.391460,-0.277463,-0.095229,-0.433447,0.093250,0.025496,-0.033280,0.999996,-0.001875,-0.000637,-0.001957,0.998328,-0.056499,0.006333,0.010486,-6.470225,0.792364,1.158753,0.999700,0.020221,-0.013829,-0.021652,0.993396,-0.112676,0.011459,0.112942,0.993536
05418,2,0,-55.0000,9.209550,2.057900,-3.068705,-0.261841,-0.811245,0.073707,-0.655656,-0.130389,-0.355541,-0.273503,-0.097779,-0.430032,0.092152,0.020315,-0.030694,0.999993,-0.003278,-0.000652,-0.001778,0.998197,-0.059119,0.006874,0.007804,-6.772671,0.839224,0.846229,0.999784,0.014767,-0.014647,-0.016393,0.992888,-0.117918,0.012801,0.118132,0.992915
05419,2,0,-55.0000,9.554116,1.346047,-3.029156,-0.104059,-0.010683,0.299558,-0.821440,-0.138684,-0.358848,-0.271081,-0.089958,-0.444487,0.095586,0.013165,-0.030280,0.999990,-0.004107,-0.000693,-0.001794,0.998040,-0.061989,0.007413,0.004333,-7.104804,0.878601,0.442920,0.999853,0.007729,-0.015334,-0.009567,0.992277,-0.123670,0.014260,0.123799,0.992205
05420,2,0,-56.0000,9.778907,0.547815,-3.014277,0.006173,0.867213,0.398119,-0.823256,-0.121178,-0.390877,-0.272189,-0.096932,-0.437798,0.097818,0.005163,-0.030105,0.999989,-0.004116,-0.000606,-0.001954,0.997853,-0.065019,0.007868,0.000904,-7.455717,0.906450,0.044773,0.999875,0.000781,-0.015820,-0.002828,0.991544,-0.129744,0.015585,0.129772,0.991421
05421,2,0,-56.0000,9.584146,0.038928,-2.890826,0.094946,1.400675,0.099072,-0.743349,-0.109570,-0.457449,-0.275500,-0.088218,-0.433770,0.095858,0.000063,-0.028856,0.999990,-0.003717,-0.000548,-0.002287,0.997632,-0.068248,0.008312,-0.002042,-7.829451,0.934313,-0.298543,0.999853,-0.005210,-0.016306,0.002941,0.990676,-0.136207,0.016864,0.136139,0.990546
05422,2,0,-56.0000,9.609471,0.128375,-2.760513,0.235889,1.370416,0.089068,-0.630005,-0.097869,-0.525514,-0.273091,-0.083017,-0.441859,0.096111,0.000944,-0.027561,0.999991,-0.003150,-0.000489,-0.002628,0.997383,-0.071642,0.008751,-0.004346,-8.221773,0.964531,-0.568695,0.999809,-0.009924,-0.016833,0.007416,0.989697,-0.142985,0.018079,0.142833,0.989582
05423,2,0,-55.0000,9.671218,0.671317,-2.975438,0.037553,0.931194,0.285202,-0.547821,-0.097984,-0.592064,-0.271240,-0.082519,-0.434769,0.096746,0.006345,-0.029725,0.999992,-0.002739,-0.000490,-0.002960,0.997104,-0.075230,0.009242,-0.006162,-8.636244,1.002949,-0.783899,0.999753,-0.013679,-0.017504,0.010898,0.988605,-0.150138,0.019358,0.149910,0.988510
05424,2,0,-55.0000,9.831366,0.997276,-2.877945,0.173498,0.699478,0.454395,-0.538071,-0.084764,-0.655508,-0.272764,-0.089585,-0.438138,0.098358,0.009573,-0.028764,0.999991,-0.002690,-0.000424,-0.003278,0.996788,-0.079110,0.009688,-0.007835,-9.084390,1.035618,-0.982982,0.999690,-0.017153,-0.018074,0.014087,0.987360,-0.157863,0.020553,0.157560,0.987296
05425,2,0,-56.0000,9.904440,1.315144,-2.939767,0.129266,0.486653,0.589985,-0.564938,-0.068865,-0.709824,-0.276378,-0.085083,-0.440638,0.099100,0.012717,-0.029400,0.999990,-0.002825,-0.000344,-0.003549,0.996429,-0.083287,0.010066,-0.009550,-9.566945,1.058312,-1.186802,0.999615,-0.020709,-0.018470,0.017355,0.985944,-0.166172,0.021652,0.165787,0.985924
05426,2,0,-57.0000,9.895089,1.526722,-2.865750,0.191469,0.360865,0.593490,-0.639565,-0.047645,-0.771250,-0.275399,-0.087380,-0.446524,0.099015,0.014794,-0.028682,0.999987,-0.003198,-0.000238,-0.003856,0.996012,-0.087870,0.010328,-0.011523,-10.096591,1.062827,-1.419542,0.999521,-0.024769,-0.018549,0.021139,0.984292,-0.175278,0.022599,0.174802,0.984344
05427,2,0,-57.0000,8.697251,2.726716,-5.987264,-3.202486,-0.555243,0.596875,-0.686238,-0.126198,-0.907441,-0.270242,-0.065253,-0.438880,0.087132,0.026667,-0.059910,0.999984,-0.003431,-0.000631,-0.004537,0.995499,-0.093146,0.011015,-0.013560,-10.707052,1.111842,-1.664970,0.999390,-0.029050,-0.019404,0.024946,0.982280,-0.185753,0.024456,0.185155,0.982405
05428,2,0,-56.0000,9.424647,1.048998,-5.234152,-2.150969,1.249456,0.729201,-0.967532,-0.113716,-0.869508,-0.266348,-0.071555,-0.443843,0.094320,0.009827,-0.052337,0.999979,-0.004838,-0.000569,-0.004348,0.994910,-0.098654,0.011501,-0.016984,-11.345865,1.119250,-2.067176,0.999159,-0.036064,-0.019533,0.031526,0.979958,-0.196694,0.026235,0.195912,0.980270
05429,2,0,-56.0000,8.969161,2.142013,-5.446489,-2.557936,0.265945,0.583603,-1.107084,-0.090550,-0.885247,-0.265985,-0.073714,-0.438860,0.089809,0.020721,-0.054540,0.999975,-0.005535,-0.000453,-0.004426,0.994239,-0.104439,0.011818,-0.021035,-12.017405,1.094796,-2.539280,0.998836,-0.044296,-0.019107,0.039359,0.977300,-0.208171,0.027894,0.207176,0.977906
05430,2,0,-58.0000,9.981513,3.104897,-4.861245,-1.765038,-0.410021,1.572259,-1.392468,-0.118722,-0.893535,-0.267651,-0.063007,-0.448550,0.099980,0.030263,-0.048766,0.999966,-0.006962,-0.000594,-0.004468,0.993431,-0.110667,0.012141,-0.026446,-12.741906,1.046841,-3.166674,0.998306,-0.055232,-0.018270,0.049857,0.974107,-0.220523,0.029977,0.219238,0.975211
05431,2,0,-57.0000,10.432782,2.657686,-3.684128,-0.481628,0.096274,1.555494,-1.642718,-0.063357,-0.932304,-0.265532,-0.065023,-0.447137,0.104461,0.025787,-0.037022,0.999955,-0.008213,-0.000317,-0.004661,0.992458,-0.117452,0.012087,-0.032953,-13.530267,0.931097,-3.913862,0.997536,-0.068248,-0.016250,0.062569,0.970238,-0.233928,0.031731,0.232335,0.972118
05432,2,0,-57.0000,10.735368,1.749193,-2.956925,0.380947,1.073559,1.401208,-1.702985,-0.016502,-0.984233,-0.267790,-0.059619,-0.452072,0.107440,0.016711,-0.029705,0.999952,-0.008515,-0.000083,-0.004921,0.991348,-0.124577,0.011792,-0.039638,-14.356556,0.773729,-4.676870,0.996580,-0.081529,-0.013504,0.075653,0.965819,-0.247933,0.033256,0.246063,0.968683
05433,2,0,-56.0000,11.042952,0.219067,-2.059488,1.496296,2.596233,1.015746,-1.685896,0.058027,-1.081019,-0.272323,-0.051158,-0.453028,0.110433,0.001420,-0.020641,0.999950,-0.008429,0.000290,-0.005405,0.990096,-0.132149,0.011193,-0.046050,-15.231730,0.572596,-5.402401,0.995508,-0.094145,-0.009994,0.088229,0.960832,-0.262710,0.034335,0.260649,0.964823
05434,2,0,-56.0000,11.007338,-0.454925,-1.646268,1.967058,3.297628,0.643552,-1.496298,0.137866,-1.197861,-0.268217,-0.052769,-0.452709,0.110032,-0.005332,-0.016501,0.999954,-0.007481,0.000689,-0.005989,0.988763,-0.140018,0.010374,-0.051336,-16.138474,0.351740,-5.994066,0.994514,-0.104423,-0.006139,0.098613,0.955519,-0.277955,0.034891,0.275824,0.960575
05435,2,0,-57.0000,11.308766,-0.713467,-1.354556,2.377166,3.706148,0.715520,-1.256385,0.234512,-1.353444,-0.274507,-0.043710,-0.449332,0.113020,-0.007985,-0.013630,0.999957,-0.006282,0.001173,-0.006767,0.987357,-0.148303,0.009323,-0.055190,-17.090672,0.116879,-6.416139,0.993734,-0.111749,-0.002040,0.106218,0.949921,-0.293884,0.034779,0.291826,0.955839
05436,2,0,-58.0000,11.788563,-0.546504,-1.540805,2.326719,3.883883,1.193744,-0.991566,0.334342,-1.517724,-0.269381,-0.042269,-0.457202,0.117813,-0.006436,-0.015575,0.999958,-0.004958,0.001672,-0.007589,0.985890,-0.157013,0.008053,-0.057478,-18.090620,-0.124397,-6.653385,0.993263,-0.115862,0.002171,0.110805,0.944087,-0.310520,0.033928,0.308669,0.950564
05437,2,0,-58.0000,11.990450,0.025925,-1.891144,1.964658,3.682142,1.585814,-0.792354,0.417149,-1.679204,-0.274170,-0.037450,-0.456811,0.119861,-0.000823,-0.019160,0.999955,-0.003962,0.002086,-0.008396,0.984328,-0.166222,0.006623,-0.058525,-19.148371,-0.367703,-6.743188,0.993062,-0.117417,0.006418,0.113013,0.937890,-0.328009,0.032495,0.326458,0.944653
05438,2,0,-59.0000,12.244226,0.657356,-2.319943,1.527169,3.493096,2.069917,-0.689636,0.476054,-1.819429,-0.269652,-0.025371,-0.454323,0.122439,0.005379,-0.023511,0.999950,-0.003448,0.002380,-0.009097,0.982625,-0.175955,0.005072,-0.058837,-20.268014,-0.615175,-6.743302,0.993025,-0.117415,0.010737,0.113844,0.931156,-0.346392,0.030674,0.345198,0.938028
05439,2,0,-58.0000,12.805050,1.496358,-2.445578,1.432166,3.168300,2.840126,-0.681341,0.522098,-1.930916,-0.285246,-0.019714,-0.457879,0.128122,0.013643,-0.024838,0.999944,-0.003407,0.002610,-0.009654,0.980738,-0.186203,0.003386,-0.058906,-21.449083,-0.876430,-6.708438,0.993037,-0.116803,0.015296,0.114282,0.923717,-0.365631,0.028578,0.364834,0.930634
05440,2,0,-58.0000,13.577798,2.224926,-2.369422,1.601039,3.010364,3.725685,-0.758966,0.566199,-2.015284,-0.284781,-0.006466,-0.451144,0.135924,0.020789,-0.024160,0.999938,-0.003795,0.002831,-0.010076,0.978624,-0.196952,0.001478,-0.059176,-22.689665,-1.169851,-6.686079,0.992992,-0.116405,0.020416,0.115241,0.915416,-0.385659,0.026203,0.385309,0.922415
05441,2,0,-57.0000,14.070171,2.492339,-2.029405,1.991352,3.157249,4.128514,-0.901707,0.620364,-2.071921,-0.285928,0.004476,-0.459968,0.140885,0.023371,-0.020839,0.999931,-0.004508,0.003102,-0.010359,0.976253,-0.208166,-0.000770,-0.059974,-23.984881,-1.516931,-6.708619,0.992805,-0.116779,0.026472,0.117420,0.906140,-0.406353,0.023466,0.406538,0.913333
05442,2,0,-56.0000,14.046065,2.183732,-1.601785,2.384947,3.636886,3.814560,-1.070048,0.682437,-2.120765,-0.286081,0.008632,-0.460178,0.140625,0.020259,-0.016609,0.999924,-0.005350,0.003412,-0.010604,0.973595,-0.219836,-0.003440,-0.061421,-25.333296,-1.931419,-6.785567,0.992431,-0.118087,0.033703,0.121111,0.895799,-0.427640,0.020307,0.428485,0.903321
05443,2,0,-56.0000,14.128797,1.118094,-1.220089,2.880917,4.833728,3.252044,-1.225465,0.753601,-2.170641,-0.299981,0.023768,-0.462705,0.141350,0.009570,-0.012795,0.999915,-0.006127,0.003768,-0.010853,0.970635,-0.231951,-0.006561,-0.063435,-26.733895,-2.416544,-6.904120,0.991866,-0.120101,0.042164,0.126189,0.884349,-0.449447,0.016691,0.451112,0.892311
05444,2,0,-57.0000,16.523285,-1.311351,-2.022467,3.163468,8.471216,4.224620,-1.146497,0.862769,-2.193856,-0.298538,0.033554,-0.456513,0.164986,-0.015043,-0.020854,0.999914,-0.005732,0.004314,-0.010969,0.967528,-0.244079,-0.010112,-0.064911,-28.139049,-2.937971,-6.939976,0.991369,-0.120671,0.051255,0.130543,0.872424,-0.470993,0.012119,0.473619,0.880647
05445,2,0,-59.0000,15.661478,-2.810771,-2.849019,2.294741,9.976856,2.696534,-0.683123,1.088182,-2.342298,-0.305977,0.042088,-0.460432,0.156113,-0.030037,-0.029240,0.999911,-0.003416,0.005441,-0.011711,0.964374,-0.256359,-0.014117,-0.063741,-29.573433,-3.434629,-6.656147,0.991476,-0.115702,0.059910,0.130179,0.860434,-0.492652,0.005453,0.496252,0.868162
05446,2,0,-62.0000,14.598865,-2.058995,-3.656358,1.009447,9.423012,2.057801,-0.634546,0.990056,-2.498427,-0.305223,0.055308,-0.455309,0.145532,-0.022527,-0.037215,0.999905,-0.003173,0.004950,-0.012492,0.960911,-0.269196,-0.017466,-0.062274,-31.086792,-3.847114,-6.345607,0.991634,-0.110276,0.067094,0.129083,0.847310,-0.515172,-0.000038,0.519523,0.854456
05447,2,0,-66.0000,17.309470,-1.850196,-4.366780,0.959572,11.076049,4.275903,-0.622139,1.106268,-2.547997,-0.309334,0.070835,-0.456644,0.172594,-0.020841,-0.044561,0.999899,-0.003111,0.005531,-0.012740,0.957191,-0.282258,-0.021304,-0.060511,-32.635167,-4.297953,-5.975723,0.991769,-0.103814,0.074943,0.127867,0.833338,-0.537771,-0.006625,0.542928,0.839753
05448,2,0,-64.0000,16.886890,-3.456638,-4.629559,0.744816,12.648965,2.756050,-0.951509,1.121717,-2.655388,-0.313525,0.085694,-0.452103,0.168126,-0.037025,-0.047068,0.999885,-0.004757,0.005608,-0.013276,0.952902,-0.296162,-0.025540,-0.060111,-34.288476,-4.834554,-5.726921,0.991469,-0.099432,0.084279,0.129688,0.817350,-0.561356,-0.013068,0.567496,0.823272
05449,2,0,-64.0000,16.876619,-5.567593,-4.411007,1.212331,14.641381,1.114751,-1.311143,1.068793,-2.727572,-0.326657,0.095038,-0.445185,0.167746,-0.058260,-0.044632,0.999871,-0.006555,0.005344,-0.013637,0.948038,-0.310749,-0.029931,-0.061345,-36.028293,-5.444197,-5.632939,0.990682,-0.097712,0.094876,0.134916,0.799344,-0.585531,-0.018625,0.592876,0.805079
05450,2,0,-64.0000,16.284436,-7.583547,-3.500786,2.214841,15.952157,-1.121012,-1.508714,1.087748,-2.760700,-0.336835,0.110551,-0.445499,0.161583,-0.078337,-0.035304,0.999861,-0.007543,0.005438,-0.013803,0.942730,-0.325636,-0.034654,-0.063408,-37.812165,-6.121313,-5.597498,0.989557,-0.096983,0.106634,0.142121,0.779881,-0.609579,-0.024043,0.618369,0.785520
05451,2,0,-64.0000,15.207367,-8.716315,-4.099384,1.530637,16.635681,-3.109891,-1.263770,1.138652,-2.829961,-0.329986,0.115426,-0.446242,0.150583,-0.089561,-0.041293,0.999864,-0.006319,0.005693,-0.014149,0.937233,-0.340503,-0.039176,-0.064165,-39.614805,-6.726560,-5.407889,0.988696,-0.093597,0.117131,0.146955,0.759881,-0.633234,-0.029737,0.643289,0.765046
05452,2,0,-62.0000,15.365802,-6.778519,-4.765889,0.494481,15.706617,-2.210009,-0.645697,1.326913,-2.910605,-0.337233,0.140688,-0.438765,0.152329,-0.070164,-0.048449,0.999867,-0.003228,0.006634,-0.014552,0.931806,-0.355017,-0.043536,-0.061687,-41.408651,-7.176935,-4.859517,0.988599,-0.084049,0.124934,0.145873,0.740315,-0.656243,-0.037334,0.666985,0.744135
05453,2,0,-61.0000,17.429355,-2.259026,-5.676947,-0.866358,14.250026,1.903473,-0.006356,1.629501,-2.965285,-0.347267,0.160196,-0.430468,0.173463,-0.025168,-0.058184,0.999857,-0.000032,0.008147,-0.014826,0.926453,-0.369136,-0.048193,-0.055681,-43.192589,-7.493033,-3.909092,0.989154,-0.067591,0.130406,0.138751,0.721276,-0.678608,-0.048190,0.689342,0.722832
05454,2,0,-62.0000,17.739434,-0.667219,-6.404011,-1.992146,13.888244,2.807121,0.256676,1.710611,-3.077717,-0.354567,0.179078,-0.425775,0.176708,-0.009312,-0.065564,0.999844,0.001283,0.008553,-0.015388,0.920826,-0.383382,-0.052659,-0.048215,-45.019945,-7.697891,-2.800498,0.989805,-0.048418,0.133950,0.129173,0.701387,-0.700978,-0.060011,0.711134,0.700490
05455,2,0,-62.0000,15.429600,-2.500992,-9.168005,-5.080139,14.649708,-0.435234,1.116928,1.378240,-3.225860,-0.359114,0.205432,-0.421384,0.153234,-0.026971,-0.092885,0.999831,0.005584,0.006891,-0.016128,0.915405,-0.397152,-0.053923,-0.037366,-46.812311,-7.377254,-1.477979,0.991392,-0.025579,0.128402,0.111241,0.681748,-0.723080,-0.069042,0.731140,0.678725
05456,2,0,-63.0000,12.302955,-0.658856,-6.244667,-3.355037,10.672708,-1.712060,1.477607,0.973543,-3.199059,-0.359280,0.217225,-0.415736,0.122602,-0.008087,-0.063100,0.999833,0.007388,0.004867,-0.015994,0.910141,-0.410127,-0.052686,-0.025748,-48.502097,-6.720355,-0.210751,0.993122,-0.003653,0.117024,0.090085,0.662266,-0.743834,-0.074783,0.749260,0.658040
05457,2,0,-68.0000,10.365950,1.548705,-5.067198,-2.952552,7.730085,-1.624201,1.445923,0.618568,-2.989376,-0.356487,0.240710,-0.403324,0.103722,0.014304,-0.050886,0.999857,0.007229,0.003093,-0.014946,0.905085,-0.422000,-0.050071,-0.015194,-50.039068,-5.938524,0.850107,0.994524,0.014757,0.103461,0.069764,0.643371,-0.762369,-0.077814,0.765412,0.638818
05458,2,0,-62.0000,8.764786,3.009739,-4.537821,-2.902918,5.656557,-1.685829,1.325611,0.198974,-2.471228,-0.349456,0.266575,-0.405393,0.087968,0.029312,-0.045270,0.999901,0.006628,0.000995,-0.012356,0.900912,-0.431483,-0.046234,-0.006573,-51.255217,-5.104854,1.614019,0.995638,0.028055,0.088979,0.051743,0.627559,-0.776848,-0.077633,0.778064,0.623370
05459,2,0,-55.0000,9.231104,2.421861,-3.814452,-2.002353,6.339925,-1.975397,0.687104,-0.092641,-1.655716,-0.353500,0.270635,-0.404967,0.092526,0.023584,-0.038020,0.999960,0.003435,-0.000463,-0.008278,0.897954,-0.437973,-0.043060,-0.002172,-52.078380,-4.544590,1.944125,0.996282,0.033818,0.079235,0.041619,0.616350,-0.786372,-0.075430,0.786746,0.612651
05460,2,0,-54.0000,8.883380,1.812220,-2.651377,-0.871793,6.286953,-2.816849,-0.568957,0.023779,-0.925302,-0.346897,0.282461,-0.396221,0.088913,0.017635,-0.026575,0.999985,-0.002845,0.000119,-0.004626,0.895662,-0.442575,-0.043621,-0.003721,-52.665776,-4.670962,1.836769,0.996167,0.031946,0.081433,0.045277,0.608227,-0.792471,-0.074846,0.793120,0.604449
05461,2,0,-54.0000,8.442557,1.312443,-0.380654,1.267475,5.812518,-3.668423,-1.619672,0.326069,-0.393304,-0.353829,0.279096,-0.391636,0.084445,0.012926,-0.004049,0.999964,-0.008098,0.001630,-0.001966,0.893667,-0.446031,-0.048181,-0.009675,-53.117981,-5.436737,1.478686,0.995170,0.025689,0.094747,0.060273,0.601925,-0.796275,-0.077486,0.798139,0.597469
05462,2,0,-56.0000,7.186576,1.827720,0.790621,2.030462,4.295690,-4.064992,-2.255332,0.721620,0.142635,-0.365261,0.274078,-0.396926,0.071880,0.018414,0.007440,0.999930,-0.011276,0.003608,0.000713,0.892170,-0.447817,-0.056295,-0.018016,-53.369590,-6.695099,1.054261,0.993012,0.018274,0.116586,0.082566,0.598271,-0.797028,-0.084315,0.801085,0.592582
05463,2,0,-59.0000,4.970335,1.722399,-0.192001,0.560081,2.868974,-5.435186,-2.378313,0.654991,0.659147,-0.373717,0.268610,-0.388584,0.049639,0.017362,-0.002289,0.999919,-0.011891,0.003275,0.003296,0.891547,-0.447422,-0.064825,-0.027498,-53.336093,-8.059136,0.519446,0.990083,0.008976,0.140195,0.107040,0.598115,-0.794230,-0.090982,0.801360,0.591223
05464,2,0,-65.0000,4.092345,0.458252,-0.580164,0.140819,3.014450,-6.951402,-2.225173,0.406703,1.232073,-0.379659,0.262543,-0.382000,0.040882,0.004769,-0.005937,0.999917,-0.011126,0.002033,0.006160,0.892209,-0.444204,-0.072454,-0.037377,-52.923576,-9.351707,-0.135127,0.986707,-0.002327,0.162494,0.131065,0.602572,-0.787228,-0.096083,0.798061,0.594867
05465,2,0,-60.0000,2.973132,-0.643518,-0.736159,-0.049542,2.832048,-8.481344,-2.089556,0.206032,1.775608,-0.396571,0.257701,-0.389494,0.029780,-0.006248,-0.007326,0.999905,-0.010447,0.001030,0.008878,0.894016,-0.438368,-0.079430,-0.047545,-52.157741,-10.585841,-0.896045,0.982861,-0.015372,0.183708,0.154651,0.611146,-0.776263,-0.100340,0.791369,0.603049
05466,2,0,-56.0000,2.212624,-1.575345,-1.617438,-0.842186,3.043979,-9.677680,-1.880886,-0.039077,2.189519,-0.405034,0.247450,-0.394384,0.022301,-0.015661,-0.016022,0.999896,-0.009404,-0.000195,0.010947,0.896788,-0.430313,-0.085297,-0.057673,-51.087010,-11.690340,-1.757400,0.978796,-0.030031,0.202622,0.176850,0.623009,-0.761961,-0.103353,0.781638,0.615110
05467,2,0,-59.0000,1.945575,-2.512680,-2.225419,-1.236095,3.603941,-10.543745,-1.327046,-0.197219,2.550450,-0.407221,0.235035,-0.397558,0.019797,-0.025023,-0.022069,0.999896,-0.006635,-0.000986,0.012752,0.900636,-0.420064,-0.089727,-0.065952,-49.729488,-12.534666,-2.549133,0.975199,-0.043416,0.217030,0.194180,0.638393,-0.744815,-0.106214,0.768486,0.630990
05468,2,0,-66.0000,1.505222,-3.328609,-2.421062,-1.271498,3.891496,-11.376452,-0.641020,-0.353390,2.930150,-0.415851,0.227062,-0.395528,0.015581,-0.033138,-0.024077,0.999886,-0.003205,-0.001767,0.014650,0.905730,-0.407353,-0.092527,-0.071801,-48.063040,-13.067948,-3.218061,0.972567,-0.054682,0.226106,0.205448,0.657817,-0.724616,-0.109113,0.751190,0.651005
05469,2,0,-63.0000,1.537327,-3.365735,-2.585807,-1.385871,4.036658,-11.282789,-0.077530,-0.570937,3.262812,-0.419389,0.208512,-0.405939,0.015993,-0.033410,-0.025800,0.999863,-0.000388,-0.002855,0.016313,0.911825,-0.392505,-0.093649,-0.075799,-46.134765,-13.313891,-3.813171,0.970969,-0.064716,0.230286,0.211746,0.680389,-0.701594,-0.111280,0.729988,0.674340
05470,2,0,-66.0000,2.331572,-2.408062,-2.759185,-1.644711,4.016083,-9.924022,0.421104,-0.775823,3.546292,-0.409450,0.195139,-0.411917,0.023844,-0.023603,-0.027550,0.999833,0.002105,-0.003879,0.017730,0.918721,-0.375699,-0.093236,-0.078165,-43.977275,-13.299914,-4.335329,0.970395,-0.073566,0.230048,0.213681,0.705481,-0.675749,-0.112582,0.704900,0.700315
05471,2,0,-64.0000,3.317861,-0.934757,-2.517014,-1.619386,3.532980,-8.048937,0.835568,-0.944067,3.810407,-0.405354,0.179548,-0.416685,0.033466,-0.008607,-0.025050,0.999799,0.004178,-0.004720,0.019051,0.926169,-0.357150,-0.091608,-0.079135,-41.627473,-13.074372,-4.778704,0.970691,-0.081148,0.226216,0.212020,0.732363,-0.647065,-0.113164,0.676062,0.728103
05472,2,0,-58.0000,4.114456,-0.054817,-2.271532,-1.474120,3.217566,-6.720353,1.089731,-1.095637,4.080221,-0.394802,0.170908,-0.435060,0.041266,0.000416,-0.022489,0.999762,0.005448,-0.005478,0.020399,0.933953,-0.336872,-0.089120,-0.079411,-39.089609,-12.707284,-5.192722,0.971503,-0.088289,0.219970,0.208377,0.760422,-0.615091,-0.112964,0.643400,0.757150
05473,2,0,-58.0000,5.011127,0.468884,-2.190102,-1.372691,3.161113,-5.541214,1.208500,-1.239981,4.363261,-0.391207,0.152924,-0.436881,0.050126,0.005913,-0.021557,0.999725,0.006042,-0.006199,0.021814,0.941839,-0.314972,-0.086033,-0.079569,-36.378674,-12.250304,-5.619209,0.972534,-0.095687,0.212183,0.204079,0.788923,-0.579614,-0.111934,0.606996,0.786782
05474,2,0,-62.0000,6.164284,1.047451,-1.911367,-1.042022,3.024732,-4.111346,1.233888,-1.347039,4.630667,-0.380627,0.141250,-0.441775,0.061503,0.012016,-0.018628,0.999690,0.006169,-0.006734,0.023151,0.949625,-0.291528,-0.082625,-0.079977,-33.506102,-11.745039,-6.081247,0.973554,-0.103721,0.203557,0.200071,0.817231,-0.540468,-0.110295,0.566900,0.816369
05475,2,0,-66.0000,7.327261,1.663576,-1.526684,-0.605270,2.685627,-2.657632,1.150326,-1.436065,4.867755,-0.380386,0.120094,-0.454571,0.072944,0.018499,-0.014639,0.999662,0.005751,-0.007180,0.024336,0.957059,-0.266859,-0.079086,-0.081053,-30.509958,-11.223646,-6.611575,0.974352,-0.112936,0.194639,0.197355,0.844434,-0.497979,-0.108120,0.523619,0.845064
05476,2,0,-60.0000,8.342730,2.176967,-1.388323,-0.394763,2.281309,-1.393125,1.033215,-1.538178,5.074663,-0.371633,0.104797,-0.461727,0.082941,0.023948,-0.013124,0.999635,0.005165,-0.007690,0.025370,0.964022,-0.241046,-0.075334,-0.082966,-27.400773,-10.675418,-7.228180,0.974883,-0.123644,0.185245,0.196280,0.870027,-0.452247,-0.105251,0.477247,0.872443
05477,2,0,-56.0000,9.331818,2.591608,-1.417157,-0.317036,1.857369,-0.208910,0.857694,-1.652073,5.257183,-0.363986,0.087913,-0.461177,0.092705,0.028417,-0.013286,0.999611,0.004288,-0.008259,0.026283,0.970352,-0.214340,-0.071334,-0.085949,-24.208445,-10.095144,-7.953176,0.975048,-0.136222,0.175283,0.197381,0.893342,-0.403709,-0.101594,0.428233,0.897939
05478,2,0,-56.0000,10.297016,2.378845,-1.690171,-0.323578,1.914897,0.710692,0.692306,-1.734844,5.422191,-0.360958,0.066020,-0.487772,0.102415,0.026627,-0.015923,0.999589,0.003461,-0.008673,0.027107,0.975973,-0.186759,-0.067173,-0.089916,-20.937204,-9.479989,-8.772048,0.974806,-0.150421,0.164703,0.200602,0.914072,-0.352464,-0.097533,0.376624,0.921218
05479,2,0,-52.0000,11.501026,1.968406,-1.928819,-0.200422,2.099053,1.822721,0.559179,-1.774293,5.566353,-0.349614,0.051474,-0.484493,0.114567,0.022929,-0.018209,0.999569,0.002795,-0.008870,0.027828,0.980795,-0.158493,-0.062996,-0.094616,-17.611856,-8.833535,-9.649339,0.974159,-0.165630,0.153564,0.205567,0.931855,-0.298978,-0.093580,0.322820,0.941823
05480,2,0,-50.0000,12.661183,1.821226,-2.159444,-0.135423,1.885811,3.019377,0.477015,-1.782742,5.671249,-0.338755,0.025052,-0.496850,0.126212,0.021845,-0.020419,0.999555,0.002385,-0.008912,0.028352,0.984774,-0.129628,-0.058861,-0.099756,-14.243956,-8.151573,-10.548321,0.973168,-0.181215,0.141792,0.211735,0.946490,-0.243565,-0.090067,0.267052,0.959464
05481,2,0,-52.0000,13.622449,1.708849,-2.592371,-0.305019,1.516208,4.071168,0.407733,-1.824065,5.758567,-0.338244,0.014787,-0.495473,0.135885,0.021056,-0.024643,0.999542,0.002038,-0.009119,0.028788,0.987866,-0.100320,-0.054582,-0.105251,-10.852895,-7.409267,-11.458275,0.971886,-0.196996,0.128956,0.218898,0.957716,-0.186716,-0.086721,0.209695,0.973914
05482,2,0,-56.0000,14.670420,1.677575,-2.955913,-0.404654,0.930759,5.209757,0.342327,-1.915086,5.813237,-0.329046,-0.002318,-0.510395,0.146407,0.021084,-0.028122,0.999530,0.001711,-0.009574,0.029062,0.990044,-0.070622,-0.049868,-0.111083,-7.447055,-6.570932,-12.375573,0.970347,-0.212911,0.114433,0.226998,0.965346,-0.128759,-0.083053,0.150917,0.985051
05483,2,0,-64.0000,15.900914,1.512740,-3.524561,-0.610665,0.402880,6.525375,0.372239,-2.039739,5.819641,-0.330843,-0.038246,-0.517755,0.158826,0.019815,-0.033591,0.999523,0.001861,-0.010197,0.029094,0.991332,-0.040744,-0.044497,-0.116712,-4.056175,-5.608685,-13.230562,0.968797,-0.227774,0.097734,0.235027,0.969436,-0.070396,-0.078712,0.091169,0.992720
05484,2,0,-59.0000,16.849891,1.681418,-4.149385,-0.989749,-0.588260,7.581110,0.584343,-2.150830,5.743223,-0.316921,-0.051715,-0.542211,0.168354,0.021768,-0.039624,0.999526,0.002921,-0.010752,0.028712,0.991829,-0.010813,-0.038465,-0.121156,-0.697095,-4.526561,-13.901266,0.967683,-0.239500,0.078921,0.241164,0.970409,-0.012128,-0.073681,0.030769,0.996807
05485,2,0,-56.0000,17.777808,1.833286,-4.560277,-1.138081,-1.742319,8.511379,0.957054,-2.276509,5.611976,-0.311110,-0.072876,-0.559444,0.177669,0.023531,-0.043475,0.999530,0.004785,-0.011381,0.028055,0.991651,0.019008,-0.031722,-0.123535,2.614348,-3.337479,-14.278252,0.967466,-0.246213,0.058217,0.243801,0.968756,0.045536,-0.067610,-0.029861,0.997265
05486,2,0,-62.0000,18.431263,2.993867,-4.338772,-0.997448,-4.101574,8.884096,1.410962,-2.338919,5.404412,-0.292274,-0.092996,-0.572367,0.183897,0.035207,-0.040999,0.999542,0.007054,-0.011693,0.027018,0.990871,0.048481,-0.024602,-0.123367,5.866774,-2.108531,-14.302100,0.968351,-0.246867,0.036793,0.242096,0.964860,0.102146,-0.060716,-0.090006,0.994089
05487,2,0,-71.0000,18.827747,5.403917,-3.149637,-0.317406,-7.854959,8.399760,1.763502,-2.267476,5.101478,-0.292964,-0.126171,-0.592778,0.187150,0.059085,-0.028864,0.999572,0.008816,-0.011336,0.025504,0.989515,0.076819,-0.017744,-0.121016,8.994656,-0.946805,-14.019578,0.970081,-0.242220,0.016524,0.236768,0.958908,0.156321,-0.053709,-0.147732,0.987568
05488,2,0,-67.0000,19.630872,7.944828,-0.966807,1.395507,-11.931929,7.651457,2.068214,-2.063936,4.698565,-0.279765,-0.149675,-0.598442,0.194449,0.084112,-0.006801,0.999617,0.010340,-0.010318,0.023490,0.987698,0.103465,-0.011772,-0.116655,11.954295,0.050770,-13.466493,0.972506,-0.232877,-0.000886,0.228005,0.951373,0.207131,-0.047393,-0.201638,0.978313
05489,2,0,-64.0000,20.692838,11.172678,0.767672,2.645365,-16.466166,6.781459,2.330885,-1.804080,4.200710,-0.271436,-0.169105,-0.628124,0.204434,0.115924,0.010863,0.999671,0.011653,-0.009019,0.021001,0.985612,0.127795,-0.006947,-0.110400,14.683173,0.832202,-12.675135,0.975527,-0.219400,-0.014524,0.215849,0.942960,0.253447,-0.041911,-0.250380,0.967240
05490,2,0,-59.0000,21.124438,13.446562,1.187205,2.836332,-19.510388,5.668342,2.390443,-1.376153,3.661785,-0.271816,-0.191426,-0.637682,0.208642,0.138135,0.014950,0.999737,0.011951,-0.006880,0.018307,0.983369,0.149316,-0.003976,-0.103312,17.131483,1.319801,-11.796102,0.978622,-0.204375,-0.023033,0.202001,0.934063,0.294487,-0.038672,-0.292844,0.955378
05491,2,0,-58.0000,19.467004,13.908764,-0.127848,1.364366,-19.737285,3.638819,2.635216,-0.901825,3.058805,-0.256451,-0.215666,-0.659254,0.192510,0.142036,0.001451,0.999786,0.013175,-0.004509,0.015293,0.981259,0.167901,-0.003257,-0.094499,19.282722,1.452079,-10.754985,0.982119,-0.186550,-0.025341,0.184362,0.925759,0.330124,-0.038125,-0.328893,0.943597
05492,2,0,-60.0000,16.696253,16.344602,-2.441905,-1.693385,-21.099092,0.374266,3.108168,-0.622116,2.338469,-0.261533,-0.234539,-0.659286,0.165103,0.165731,-0.021340,0.999806,0.015540,-0.003110,0.011692,0.979525,0.183535,-0.004062,-0.082636,21.119578,1.282089,-9.405527,0.986309,-0.163380,-0.022375,0.160398,0.918972,0.360225,-0.038292,-0.358883,0.932597
